File: XRD_graph/XRD_data/Bi2ZnB2O7_XRD/Bi2Zn0.8Ga0.2B2O7_2doyaki.txt
2theta,Intensity
10,4
10.04,5
10.08,3
10.12,4
10.16,3
10.2,5
10.24,5
10.28,5
10.32,7
10.36,5
10.4,5
10.44,3
10.48,7
10.52,7
10.56,5
10.6,4
10.64,5
10.68,6
10.72,8
10.76,8
10.8,4
10.84,3
10.88,4
10.92,7
10.96,7
11,4
11.04,6
11.08,4
11.12,6
11.16,4
11.2,9
11.24,3
11.28,4
11.32,5
11.36,4
11.4,6
11.44,5
11.48,4
11.52,9
11.56,6
11.6,6
11.64,8
11.68,5
11.72,5
11.76,10
11.8,5
11.84,4
11.88,4
11.92,9
11.96,4
12,7
12.04,7
12.08,4
12.12,4
12.16,8
12.2,6
12.24,4
12.28,7
12.32,9
12.36,4
12.4,6
12.44,7
12.48,7
12.52,6
12.56,5
12.6,6
12.64,6
12.68,8
12.72,7
12.76,6
12.8,5
12.84,4
12.88,3
12.92,4
12.96,4
13,4
13.04,6
13.08,4
13.12,5
13.16,4
13.2,4
13.24,8
13.28,5
13.32,3
13.36,5
13.4,5
13.44,3
13.48,5
13.52,4
13.56,7
13.6,4
13.64,6
13.68,2
13.72,8
13.76,4
13.8,6
13.84,3
13.88,4
13.92,5
13.96,8
14,7
14.04,7
14.08,5
14.12,4
14.16,3
14.2,7
14.24,4
14.28,5
14.32,5
14.36,6
14.4,4
14.44,4
14.48,3
14.52,6
14.56,2
14.6,8
14.64,6
14.68,6
14.72,7
14.76,5
14.8,10
14.84,5
14.88,6
14.92,6
14.96,12
15,6
15.04,5
15.08,5
15.12,7
15.16,5
15.2,3
15.24,8
15.28,3
15.32,6
15.36,5
15.4,6
15.44,2
15.48,7
15.52,3
15.56,10
15.6,8
15.64,5
15.68,6
15.72,5
15.76,7
15.8,5
15.84,8
15.88,7
15.92,9
15.96,6
16,5
16.04,5
16.08,8
16.12,6
16.16,9
16.2,3
16.24,6
16.28,7
16.32,10
16.36,9
16.4,8
16.44,7
16.48,5
16.52,3
16.56,6
16.6,3
16.64,4
16.68,3
16.72,3
16.76,3
16.8,4
16.84,9
16.88,4
16.92,4
16.96,7
17,5
17.04,8
17.08,5
17.12,9
17.16,8
17.2,7
17.24,7
17.28,9
17.32,5
17.36,7
17.4,5
17.44,7
17.48,6
17.52,7
17.56,6
17.6,8
17.64,11
17.68,11
17.72,12
17.76,15
17.8,12
17.84,17
17.88,26
17.92,34
17.96,54
18,55
18.04,60
18.08,68
18.12,53
18.16,38
18.2,22
18.24,15
18.28,9
18.32,12
18.36,9
18.4,10
18.44,4
18.48,4
18.52,7
18.56,4
18.6,5
18.64,7
18.68,7
18.72,8
18.76,7
18.8,5
18.84,4
18.88,5
18.92,7
18.96,5
19,6
19.04,7
19.08,5
19.12,6
19.16,7
19.2,10
19.24,5
19.28,2
19.32,7
19.36,4
19.4,6
19.44,4
19.48,5
19.52,8
19.56,6
19.6,4
19.64,6
19.68,5
19.72,5
19.76,4
19.8,4
19.84,5
19.88,8
19.92,3
19.96,5
20,7
20.04,6
20.08,6
20.12,8
20.16,8
20.2,7
20.24,6
20.28,5
20.32,7
20.36,6
20.4,5
20.44,6
20.48,5
20.52,6
20.56,5
20.6,4
20.64,5
20.68,6
20.72,5
20.76,7
20.8,9
20.84,9
20.88,5
20.92,7
20.96,7
21,3
21.04,5
21.08,7
21.12,5
21.16,8
21.2,6
21.24,5
21.28,10
21.32,8
21.36,12
21.4,11
21.44,10
21.48,11
21.52,7
21.56,7
21.6,10
21.64,6
21.68,8
21.72,7
21.76,6
21.8,8
21.84,8
21.88,5
21.92,6
21.96,8
22,6
22.04,9
22.08,9
22.12,4
22.16,5
22.2,5
22.24,7
22.28,4
22.32,5
22.36,5
22.4,4
22.44,7
22.48,6
22.52,2
22.56,4
22.6,8
22.64,7
22.68,4
22.72,10
22.76,10
22.8,17
22.84,20
22.88,24
22.92,39
22.96,38
23,37
23.04,28
23.08,25
23.12,9
23.16,10
23.2,4
23.24,7
23.28,6
23.32,4
23.36,5
23.4,6
23.44,9
23.48,7
23.52,4
23.56,8
23.6,6
23.64,7
23.68,6
23.72,5
23.76,6
23.8,9
23.84,5
23.88,4
23.92,7
23.96,7
24,6
24.04,4
24.08,8
24.12,6
24.16,10
24.2,11
24.24,17
24.28,15
24.32,24
24.36,15
24.4,13
24.44,17
24.48,21
24.52,26
24.56,17
24.6,23
24.64,30
24.68,26
24.72,39
24.76,30
24.8,28
24.84,21
24.88,13
24.92,12
24.96,5
25,7
25.04,8
25.08,12
25.12,9
25.16,6
25.2,8
25.24,11
25.28,12
25.32,10
25.36,15
25.4,27
25.44,29
25.48,40
25.52,47
25.56,55
25.6,58
25.64,44
25.68,34
25.72,27
25.76,20
25.8,29
25.84,33
25.88,29
25.92,43
25.96,47
26,35
26.04,22
26.08,12
26.12,10
26.16,10
26.2,13
26.24,9
26.28,6
26.32,7
26.36,8
26.4,6
26.44,5
26.48,7
26.52,5
26.56,7
26.6,5
26.64,3
26.68,6
26.72,5
26.76,9
26.8,7
26.84,2
26.88,7
26.92,3
26.96,7
27,8
27.04,4
27.08,5
27.12,8
27.16,12
27.2,7
27.24,9
27.28,16
27.32,9
27.36,9
27.4,14
27.44,19
27.48,22
27.52,25
27.56,43
27.6,57
27.64,75
27.68,109
27.72,157
27.76,156
27.8,123
27.84,82
27.88,47
27.92,30
27.96,21
28,10
28.04,15
28.08,12
28.12,13
28.16,4
28.2,12
28.24,7
28.28,12
28.32,3
28.36,7
28.4,7
28.44,9
28.48,5
28.52,7
28.56,8
28.6,8
28.64,7
28.68,8
28.72,8
28.76,9
28.8,2
28.84,7
28.88,11
28.92,13
28.96,7
29,10
29.04,9
29.08,12
29.12,13
29.16,15
29.2,21
29.24,44
29.28,68
29.32,108
29.36,130
29.4,153
29.44,163
29.48,108
29.52,72
29.56,36
29.6,19
29.64,21
29.68,6
29.72,10
29.76,12
29.8,10
29.84,6
29.88,10
29.92,6
29.96,8
30,6
30.04,8
30.08,9
30.12,8
30.16,9
30.2,16
30.24,10
30.28,19
30.32,31
30.36,34
30.4,32
30.44,43
30.48,44
30.52,43
30.56,23
30.6,14
30.64,16
30.68,13
30.72,6
30.76,7
30.8,8
30.84,11
30.88,7
30.92,4
30.96,11
31,7
31.04,7
31.08,8
31.12,9
31.16,8
31.2,8
31.24,11
31.28,10
31.32,25
31.36,34
31.4,54
31.44,85
31.48,106
31.52,112
31.56,77
31.6,60
31.64,56
31.68,39
31.72,67
31.76,64
31.8,96
31.84,83
31.88,62
31.92,40
31.96,25
32,18
32.04,10
32.08,12
32.12,13
32.16,13
32.2,11
32.24,15
32.28,12
32.32,10
32.36,17
32.4,21
32.44,23
32.48,17
32.52,18
32.56,13
32.6,16
32.64,17
32.68,13
32.72,13
32.76,31
32.8,40
32.84,49
32.88,68
32.92,97
32.96,113
33,106
33.04,88
33.08,61
33.12,46
33.16,29
33.2,19
33.24,18
33.28,11
33.32,12
33.36,12
33.4,12
33.44,14
33.48,15
33.52,18
33.56,6
33.6,12
33.64,6
33.68,5
33.72,7
33.76,4
33.8,7
33.84,6
33.88,8
33.92,8
33.96,8
34,12
34.04,12
34.08,12
34.12,7
34.16,9
34.2,5
34.24,10
34.28,5
34.32,7
34.36,6
34.4,5
34.44,6
34.48,10
34.52,7
34.56,11
34.6,8
34.64,10
34.68,18
34.72,11
34.76,14
34.8,6
34.84,9
34.88,7
34.92,9
34.96,8
35,4
35.04,8
35.08,6
35.12,4
35.16,7
35.2,6
35.24,10
35.28,12
35.32,13
35.36,12
35.4,10
35.44,8
35.48,10
35.52,8
35.56,10
35.6,16
35.64,9
35.68,14
35.72,14
35.76,13
35.8,12
35.84,9
35.88,9
35.92,8
35.96,7
36,7
36.04,5
36.08,11
36.12,6
36.16,11
36.2,16
36.24,10
36.28,14
36.32,7
36.36,14
36.4,7
36.44,9
36.48,22
36.52,18
36.56,19
36.6,29
36.64,29
36.68,31
36.72,47
36.76,39
36.8,34
36.84,24
36.88,28
36.92,25
36.96,26
37,26
37.04,18
37.08,16
37.12,11
37.16,11
37.2,6
37.24,7
37.28,10
37.32,14
37.36,9
37.4,12
37.44,16
37.48,12
37.52,18
37.56,14
37.6,14
37.64,15
37.68,10
37.72,8
37.76,11
37.8,4
37.84,8
37.88,8
37.92,7
37.96,10
38,16
38.04,9
38.08,6
38.12,7
38.16,6
38.2,6
38.24,8
38.28,11
38.32,19
38.36,13
38.4,9
38.44,10
38.48,11
38.52,8
38.56,6
38.6,8
38.64,4
38.68,3
38.72,4
38.76,6
38.8,12
38.84,14
38.88,12
38.92,13
38.96,8
39,10
39.04,7
39.08,5
39.12,6
39.16,7
39.2,7
39.24,4
39.28,9
39.32,5
39.36,5
39.4,9
39.44,9
39.48,10
39.52,15
39.56,15
39.6,14
39.64,17
39.68,21
39.72,16
39.76,16
39.8,9
39.84,11
39.88,5
39.92,10
39.96,4
40,8
40.04,10
40.08,6
40.12,6
40.16,5
40.2,4
40.24,8
40.28,7
40.32,9
40.36,8
40.4,2
40.44,2
40.48,1
40.52,9
40.56,4
40.6,2
40.64,4
40.68,2
40.72,6
40.76,6
40.8,3
40.84,10
40.88,12
40.92,5
40.96,7
41,3
41.04,7
41.08,9
41.12,18
41.16,10
41.2,18
41.24,10
41.28,17
41.32,16
41.36,13
41.4,16
41.44,19
41.48,14
41.52,23
41.56,20
41.6,22
41.64,32
41.68,35
41.72,26
41.76,30
41.8,22
41.84,17
41.88,14
41.92,14
41.96,6
42,9
42.04,7
42.08,11
42.12,4
42.16,5
42.2,6
42.24,4
42.28,6
42.32,5
42.36,5
42.4,9
42.44,7
42.48,5
42.52,6
42.56,9
42.6,7
42.64,7
42.68,8
42.72,7
42.76,2
42.8,4
42.84,5
42.88,2
42.92,3
42.96,6
43,4
43.04,3
43.08,10
43.12,7
43.16,7
43.2,5
43.24,5
43.28,6
43.32,3
43.36,11
43.4,11
43.44,10
43.48,14
43.52,19
43.56,17
43.6,23
43.64,25
43.68,23
43.72,32
43.76,33
43.8,21
43.84,23
43.88,25
43.92,14
43.96,13
44,9
44.04,8
44.08,7
44.12,9
44.16,5
44.2,10
44.24,15
44.28,11
44.32,7
44.36,7
44.4,5
44.44,6
44.48,5
44.52,4
44.56,5
44.6,7
44.64,5
44.68,7
44.72,5
44.76,6
44.8,7
44.84,4
44.88,8
44.92,7
44.96,7
45,8
45.04,11
45.08,11
45.12,13
45.16,17
45.2,29
45.24,37
45.28,52
45.32,52
45.36,51
45.4,51
45.44,55
45.48,67
45.52,69
45.56,55
45.6,58
45.64,51
45.68,33
45.72,22
45.76,17
45.8,20
45.84,17
45.88,21
45.92,15
45.96,16
46,16
46.04,12
46.08,6
46.12,11
46.16,7
46.2,8
46.24,5
46.28,11
46.32,8
46.36,4
46.4,7
46.44,10
46.48,11
46.52,6
46.56,9
46.6,8
46.64,7
46.68,7
46.72,11
46.76,6
46.8,6
46.84,8
46.88,6
46.92,3
46.96,6
47,6
47.04,4
47.08,6
47.12,8
47.16,4
47.2,7
47.24,7
47.28,7
47.32,5
47.36,6
47.4,5
47.44,5
47.48,8
47.52,9
47.56,7
47.6,12
47.64,9
47.68,14
47.72,12
47.76,12
47.8,13
47.84,9
47.88,13
47.92,9
47.96,10
48,5
48.04,5
48.08,14
48.12,10
48.16,12
48.2,25
48.24,31
48.28,29
48.32,28
48.36,20
48.4,19
48.44,15
48.48,9
48.52,8
48.56,13
48.6,13
48.64,15
48.68,23
48.72,27
48.76,38
48.8,36
48.84,30
48.88,15
48.92,15
48.96,19
49,11
49.04,15
49.08,23
49.12,23
49.16,18
49.2,14
49.24,15
49.28,16
49.32,6
49.36,6
49.4,12
49.44,12
49.48,8
49.52,11
49.56,10
49.6,8
49.64,12
49.68,10
49.72,11
49.76,15
49.8,19
49.84,23
49.88,10
49.92,14
49.96,16
50,13
50.04,8
50.08,13
50.12,17
50.16,14
50.2,14
50.24,23
50.28,24
50.32,19
50.36,15
50.4,15
50.44,15
50.48,22
50.52,25
50.56,31
50.6,15
50.64,24
50.68,15
50.72,15
50.76,14
50.8,10
50.84,13
50.88,10
50.92,11
50.96,13
51,15
51.04,10
51.08,3
51.12,7
51.16,10
51.2,8
51.24,7
51.28,7
51.32,8
51.36,10
51.4,10
51.44,10
51.48,10
51.52,9
51.56,11
51.6,10
51.64,4
51.68,9
51.72,8
51.76,5
51.8,15
51.84,13
51.88,18
51.92,23
51.96,26
52,30
52.04,34
52.08,30
52.12,25
52.16,30
52.2,21
52.24,23
52.28,29
52.32,38
52.36,46
52.4,57
52.44,69
52.48,75
52.52,84
52.56,80
52.6,70
52.64,63
52.68,54
52.72,30
52.76,31
52.8,27
52.84,25
52.88,18
52.92,16
52.96,21
53,21
53.04,22
53.08,32
53.12,32
53.16,39
53.2,22
53.24,32
53.28,27
53.32,30
53.36,19
53.4,15
53.44,15
53.48,18
53.52,13
53.56,13
53.6,7
53.64,12
53.68,14
53.72,17
53.76,17
53.8,20
53.84,32
53.88,23
53.92,38
53.96,39
54,32
54.04,34
54.08,41
54.12,56
54.16,59
54.2,44
54.24,36
54.28,37
54.32,31
54.36,25
54.4,18
54.44,13
54.48,14
54.52,13
54.56,12
54.6,5
54.64,12
54.68,8
54.72,10
54.76,11
54.8,7
54.84,8
54.88,9
54.92,10
54.96,3
55,7
55.04,9
55.08,6
55.12,8
55.16,13
55.2,10
55.24,10
55.28,5
55.32,13
55.36,9
55.4,9
55.44,17
55.48,8
55.52,19
55.56,17
55.6,24
55.64,29
55.68,29
55.72,43
55.76,44
55.8,50
55.84,33
55.88,35
55.92,38
55.96,26
56,22
56.04,21
56.08,21
56.12,17
56.16,9
56.2,11
56.24,14
56.28,16
56.32,17
56.36,23
56.4,18
56.44,19
56.48,25
56.52,12
56.56,25
56.6,12
56.64,16
56.68,21
56.72,17
56.76,12
56.8,22
56.84,16
56.88,23
56.92,20
56.96,13
57,16
57.04,16
57.08,17
57.12,16
57.16,17
57.2,18
57.24,23
57.28,20
57.32,13
57.36,11
57.4,15
57.44,13
57.48,14
57.52,12
57.56,11
57.6,5
57.64,7
57.68,14
57.72,8
57.76,9
57.8,11
57.84,11
57.88,3
57.92,6
57.96,7
58,8
58.04,9
58.08,4
58.12,6
58.16,6
58.2,7
58.24,8
58.28,11
58.32,11
58.36,8
58.4,10
58.44,8
58.48,10
58.52,13
58.56,7
58.6,6
58.64,9
58.68,8
58.72,13
58.76,11
58.8,8
58.84,10
58.88,12
58.92,15
58.96,16
59,21
59.04,6
59.08,31
59.12,16
59.16,14
59.2,16
59.24,10
59.28,10
59.32,8
59.36,9
59.4,3
59.44,8
59.48,13
59.52,8
59.56,6
59.6,11
59.64,7
59.68,3
59.72,6
59.76,5
59.8,11
59.84,6
59.88,10
59.92,10
59.96,6
60,11