File: XRD_graph/XRD_data/Bi2ZnB2O7_XRD/Bi2ZnB2O7_2kome_2doyaki.txt
2theta,Intensity
10,5.33333
10.04,6
10.08,3.33333
10.12,4
10.16,4
10.2,4
10.24,5.33333
10.28,6.66667
10.32,5.33333
10.36,4
10.4,7.33333
10.44,5.33333
10.48,7.33333
10.52,6
10.56,5.33333
10.6,4.66667
10.64,8.66667
10.68,6
10.72,2.66667
10.76,5.33333
10.8,6
10.84,6
10.88,6
10.92,5.33333
10.96,4.66667
11,9.33333
11.04,4
11.08,5.33333
11.12,6.66667
11.16,4.66667
11.2,7.33333
11.24,4.66667
11.28,7.33333
11.32,4
11.36,7.33333
11.4,6.66667
11.44,7.33333
11.48,6.66667
11.52,6.66667
11.56,8
11.6,4
11.64,6
11.68,6
11.72,6
11.76,2.66667
11.8,7.33333
11.84,4.66667
11.88,7.33333
11.92,5.33333
11.96,3.33333
12,3.33333
12.04,6
12.08,4
12.12,6.66667
12.16,10
12.2,3.33333
12.24,5.33333
12.28,4.66667
12.32,3.33333
12.36,6.66667
12.4,6.66667
12.44,5.33333
12.48,5.33333
12.52,5.33333
12.56,6.66667
12.6,4.66667
12.64,8
12.68,9.33333
12.72,8
12.76,8
12.8,6
12.84,4
12.88,7.33333
12.92,4.66667
12.96,7.33333
13,6.66667
13.04,4.66667
13.08,6
13.12,2.66667
13.16,2.66667
13.2,6.66667
13.24,9.33333
13.28,6
13.32,6.66667
13.36,6.66667
13.4,4.66667
13.44,6
13.48,5.33333
13.52,2
13.56,3.33333
13.6,5.33333
13.64,7.33333
13.68,7.33333
13.72,7.33333
13.76,8
13.8,5.33333
13.84,7.33333
13.88,7.33333
13.92,5.33333
13.96,5.33333
14,7.33333
14.04,7.33333
14.08,7.33333
14.12,8.66667
14.16,5.33333
14.2,8
14.24,2
14.28,3.33333
14.32,5.33333
14.36,8
14.4,5.33333
14.44,10.6667
14.48,8
14.52,7.33333
14.56,7.33333
14.6,3.33333
14.64,4
14.68,5.33333
14.72,4
14.76,6
14.8,4.66667
14.84,9.33333
14.88,2.66667
14.92,3.33333
14.96,5.33333
15,8.66667
15.04,3.33333
15.08,4.66667
15.12,4.66667
15.16,6
15.2,5.33333
15.24,8
15.28,6.66667
15.32,5.33333
15.36,6
15.4,9.33333
15.44,8.66667
15.48,8.66667
15.52,7.33333
15.56,6
15.6,8.66667
15.64,7.33333
15.68,6
15.72,12.6667
15.76,10.6667
15.8,16
15.84,20.6667
15.88,10
15.92,18.6667
15.96,20
16,16.6667
16.04,8.66667
16.08,6.66667
16.12,5.33333
16.16,9.33333
16.2,6.66667
16.24,5.33333
16.28,10
16.32,6
16.36,5.33333
16.4,5.33333
16.44,5.33333
16.48,4.66667
16.52,6.66667
16.56,7.33333
16.6,6.66667
16.64,7.33333
16.68,8
16.72,4
16.76,8
16.8,5.33333
16.84,4.66667
16.88,10.6667
16.92,5.33333
16.96,6
17,5.33333
17.04,5.33333
17.08,6
17.12,4.66667
17.16,8
17.2,10.6667
17.24,10
17.28,6
17.32,7.33333
17.36,9.33333
17.4,10.6667
17.44,8.66667
17.48,16
17.52,10
17.56,10
17.6,11.3333
17.64,9.33333
17.68,9.33333
17.72,12.6667
17.76,15.3333
17.8,14
17.84,22
17.88,30
17.92,37.3333
17.96,43.3333
18,54
18.04,56
18.08,45.3333
18.12,31.3333
18.16,15.3333
18.2,10
18.24,12.6667
18.28,10
18.32,9.33333
18.36,9.33333
18.4,6
18.44,8.66667
18.48,6
18.52,8.66667
18.56,4.66667
18.6,6.66667
18.64,6.66667
18.68,7.33333
18.72,4.66667
18.76,7.33333
18.8,10.6667
18.84,6.66667
18.88,5.33333
18.92,4
18.96,4.66667
19,8.66667
19.04,7.33333
19.08,9.33333
19.12,5.33333
19.16,6
19.2,7.33333
19.24,4
19.28,4.66667
19.32,7.33333
19.36,4
19.4,6
19.44,4
19.48,5.33333
19.52,8
19.56,5.33333
19.6,6.66667
19.64,4
19.68,6
19.72,7.33333
19.76,6.66667
19.8,5.33333
19.84,9.33333
19.88,6
19.92,6.66667
19.96,5.33333
20,6.66667
20.04,6
20.08,5.33333
20.12,6.66667
20.16,4
20.2,6
20.24,4
20.28,4.66667
20.32,8.66667
20.36,4.66667
20.4,8.66667
20.44,7.33333
20.48,4.66667
20.52,5.33333
20.56,8
20.6,7.33333
20.64,6.66667
20.68,10
20.72,16
20.76,10.6667
20.8,14
20.84,7.33333
20.88,7.33333
20.92,4.66667
20.96,5.33333
21,4.66667
21.04,5.33333
21.08,6
21.12,8
21.16,4.66667
21.2,6
21.24,6
21.28,6.66667
21.32,8
21.36,7.33333
21.4,9.33333
21.44,6
21.48,6
21.52,5.33333
21.56,8
21.6,5.33333
21.64,6
21.68,5.33333
21.72,5.33333
21.76,8
21.8,6.66667
21.84,9.33333
21.88,9.33333
21.92,8
21.96,8
22,6
22.04,10
22.08,12
22.12,20
22.16,18.6667
22.2,21.3333
22.24,17.3333
22.28,18
22.32,18.6667
22.36,20
22.4,26.6667
22.44,24
22.48,19.3333
22.52,14.6667
22.56,8
22.6,14
22.64,16
22.68,24.6667
22.72,40
22.76,45.3333
22.8,52.6667
22.84,49.3333
22.88,40.6667
22.92,44
22.96,30.6667
23,26
23.04,9.33333
23.08,9.33333
23.12,10
23.16,11.3333
23.2,8.66667
23.24,9.33333
23.28,5.33333
23.32,6.66667
23.36,6
23.4,6.66667
23.44,4.66667
23.48,8
23.52,7.33333
23.56,6.66667
23.6,7.33333
23.64,7.33333
23.68,7.33333
23.72,16
23.76,10.6667
23.8,12.6667
23.84,8.66667
23.88,6.66667
23.92,6
23.96,6
24,9.33333
24.04,5.33333
24.08,6
24.12,10
24.16,9.33333
24.2,12
24.24,10.6667
24.28,16
24.32,8.66667
24.36,16
24.4,17.3333
24.44,11.3333
24.48,9.33333
24.52,12.6667
24.56,12
24.6,14.6667
24.64,14
24.68,17.3333
24.72,18.6667
24.76,20
24.8,12.6667
24.84,7.33333
24.88,8
24.92,8.66667
24.96,9.33333
25,5.33333
25.04,5.33333
25.08,6
25.12,8.66667
25.16,4.66667
25.2,8
25.24,12
25.28,9.33333
25.32,12
25.36,15.3333
25.4,22.6667
25.44,34
25.48,33.3333
25.52,40.6667
25.56,32.6667
25.6,34
25.64,28.6667
25.68,24.6667
25.72,21.3333
25.76,18.6667
25.8,35.3333
25.84,35.3333
25.88,40.6667
25.92,30.6667
25.96,20.6667
26,23.3333
26.04,11.3333
26.08,10.6667
26.12,20.6667
26.16,18
26.2,22
26.24,14
26.28,12
26.32,11.3333
26.36,10.6667
26.4,8.66667
26.44,12
26.48,9.33333
26.52,10
26.56,11.3333
26.6,15.3333
26.64,23.3333
26.68,24
26.72,38
26.76,47.3333
26.8,43.3333
26.84,30.6667
26.88,20
26.92,14
26.96,13.3333
27,9.33333
27.04,8
27.08,8
27.12,6
27.16,6
27.2,10
27.24,8
27.28,14
27.32,9.33333
27.36,6
27.4,11.3333
27.44,7.33333
27.48,19.3333
27.52,15.3333
27.56,17.3333
27.6,22.6667
27.64,45.3333
27.68,58.6667
27.72,66.6667
27.76,54.6667
27.8,31.3333
27.84,18
27.88,19.3333
27.92,12.6667
27.96,15.3333
28,18
28.04,20
28.08,16.6667
28.12,11.3333
28.16,12.6667
28.2,16
28.24,19.3333
28.28,15.3333
28.32,22
28.36,28
28.4,38.6667
28.44,56
28.48,92
28.52,112.667
28.56,121.333
28.6,130.667
28.64,142.667
28.68,110.667
28.72,109.333
28.76,111.333
28.8,98.6667
28.84,95.3333
28.88,72
28.92,65.3333
28.96,44
29,32
29.04,36
29.08,36
29.12,51.3333
29.16,64
29.2,60.6667
29.24,71.3333
29.28,80.6667
29.32,104.667
29.36,112
29.4,110
29.44,78.6667
29.48,43.3333
29.52,28
29.56,21.3333
29.6,17.3333
29.64,14
29.68,14
29.72,12.6667
29.76,10.6667
29.8,8.66667
29.84,10.6667
29.88,8.66667
29.92,10
29.96,12
30,14
30.04,22.6667
30.08,23.3333
30.12,28.6667
30.16,22
30.2,16.6667
30.24,12
30.28,12.6667
30.32,13.3333
30.36,20.6667
30.4,18.6667
30.44,25.3333
30.48,15.3333
30.52,14.6667
30.56,12
30.6,8.66667
30.64,8
30.68,8
30.72,8.66667
30.76,8
30.8,8
30.84,8.66667
30.88,8.66667
30.92,4
30.96,10
31,9.33333
31.04,6.66667
31.08,12
31.12,10
31.16,14.6667
31.2,20
31.24,26
31.28,34
31.32,48.6667
31.36,60.6667
31.4,80
31.44,74.6667
31.48,78
31.52,53.3333
31.56,46
31.6,41.3333
31.64,51.3333
31.68,62.6667
31.72,72
31.76,89.3333
31.8,74
31.84,59.3333
31.88,39.3333
31.92,26.6667
31.96,17.3333
32,20
32.04,16.6667
32.08,15.3333
32.12,18
32.16,19.3333
32.2,18.6667
32.24,20.6667
32.28,17.3333
32.32,22.6667
32.36,20.6667
32.4,24
32.44,28
32.48,21.3333
32.52,23.3333
32.56,17.3333
32.6,14
32.64,16
32.68,14
32.72,12.6667
32.76,13.3333
32.8,16.6667
32.84,20
32.88,37.3333
32.92,44.6667
32.96,46
33,40
33.04,34
33.08,22
33.12,16
33.16,13.3333
33.2,11.3333
33.24,12
33.28,10.6667
33.32,8
33.36,10
33.4,13.3333
33.44,7.33333
33.48,8.66667
33.52,10
33.56,6
33.6,7.33333
33.64,8
33.68,6.66667
33.72,6.66667
33.76,6.66667
33.8,5.33333
33.84,5.33333
33.88,9.33333
33.92,10.6667
33.96,10.6667
34,10.6667
34.04,10
34.08,9.33333
34.12,6
34.16,7.33333
34.2,7.33333
34.24,10
34.28,13.3333
34.32,12
34.36,14.6667
34.4,15.3333
34.44,15.3333
34.48,8.66667
34.52,8
34.56,10
34.6,8.66667
34.64,10.6667
34.68,11.3333
34.72,12
34.76,8.66667
34.8,7.33333
34.84,7.33333
34.88,5.33333
34.92,4.66667
34.96,7.33333
35,8.66667
35.04,10
35.08,12
35.12,13.3333
35.16,14.6667
35.2,15.3333
35.24,19.3333
35.28,15.3333
35.32,14
35.36,18.6667
35.4,21.3333
35.44,36.6667
35.48,30.6667
35.52,33.3333
35.56,24
35.6,19.3333
35.64,11.3333
35.68,11.3333
35.72,16.6667
35.76,16.6667
35.8,18.6667
35.84,18
35.88,23.3333
35.92,24
35.96,27.3333
36,28.6667
36.04,23.3333
36.08,28
36.12,29.3333
36.16,33.3333
36.2,32.6667
36.24,31.3333
36.28,31.3333
36.32,22.6667
36.36,28
36.4,34.6667
36.44,39.3333
36.48,36.6667
36.52,30.6667
36.56,32.6667
36.6,30
36.64,31.3333
36.68,36
36.72,29.3333
36.76,32.6667
36.8,31.3333
36.84,25.3333
36.88,20
36.92,18
36.96,18
37,15.3333
37.04,11.3333
37.08,13.3333
37.12,11.3333
37.16,10.6667
37.2,12
37.24,12.6667
37.28,11.3333
37.32,10
37.36,14.6667
37.4,14
37.44,14.6667
37.48,12.6667
37.52,12
37.56,12.6667
37.6,8
37.64,14
37.68,8.66667
37.72,8
37.76,6.66667
37.8,7.33333
37.84,4
37.88,6.66667
37.92,9.33333
37.96,8
38,8.66667
38.04,9.33333
38.08,5.33333
38.12,6
38.16,6.66667
38.2,8
38.24,4.66667
38.28,9.33333
38.32,11.3333
38.36,14.6667
38.4,10.6667
38.44,8
38.48,6
38.52,5.33333
38.56,11.3333
38.6,6
38.64,10
38.68,6.66667
38.72,10
38.76,13.3333
38.8,12
38.84,10.6667
38.88,24.6667
38.92,17.3333
38.96,16.6667
39,12
39.04,11.3333
39.08,9.33333
39.12,4.66667
39.16,8.66667
39.2,14
39.24,10
39.28,9.33333
39.32,9.33333
39.36,10.6667
39.4,6
39.44,8
39.48,7.33333
39.52,8.66667
39.56,10.6667
39.6,8
39.64,14
39.68,11.3333
39.72,7.33333
39.76,5.33333
39.8,6.66667
39.84,7.33333
39.88,6.66667
39.92,2.66667
39.96,5.33333
40,4
40.04,3.33333
40.08,6.66667
40.12,7.33333
40.16,4.66667
40.2,8.66667
40.24,5.33333
40.28,4.66667
40.32,10
40.36,3.33333
40.4,5.33333
40.44,2.66667
40.48,6.66667
40.52,5.33333
40.56,5.33333
40.6,4.66667
40.64,5.33333
40.68,7.33333
40.72,2.66667
40.76,6.66667
40.8,4
40.84,12
40.88,6.66667
40.92,4.66667
40.96,7.33333
41,4.66667
41.04,7.33333
41.08,9.33333
41.12,10.6667
41.16,4
41.2,9.33333
41.24,6.66667
41.28,4
41.32,12
41.36,12
41.4,15.3333
41.44,14.6667
41.48,13.3333
41.52,12.6667
41.56,9.33333
41.6,12.6667
41.64,14
41.68,15.3333
41.72,16
41.76,18
41.8,13.3333
41.84,7.33333
41.88,7.33333
41.92,8.66667
41.96,8
42,11.3333
42.04,12
42.08,16.6667
42.12,6
42.16,10
42.2,9.33333
42.24,11.3333
42.28,12.6667
42.32,12.6667
42.36,12.6667
42.4,13.3333
42.44,11.3333
42.48,9.33333
42.52,12.6667
42.56,11.3333
42.6,10
42.64,9.33333
42.68,6.66667
42.72,9.33333
42.76,6.66667
42.8,6
42.84,4.66667
42.88,5.33333
42.92,4.66667
42.96,9.33333
43,8.66667
43.04,8.66667
43.08,10.6667
43.12,17.3333
43.16,12.6667
43.2,15.3333
43.24,10.6667
43.28,15.3333
43.32,16
43.36,10
43.4,12.6667
43.44,10.6667
43.48,10.6667
43.52,10.6667
43.56,20
43.6,16
43.64,22
43.68,24
43.72,26
43.76,18.6667
43.8,20.6667
43.84,15.3333
43.88,11.3333
43.92,19.3333
43.96,19.3333
44,16.6667
44.04,14
44.08,14
44.12,12.6667
44.16,10
44.2,11.3333
44.24,10
44.28,6.66667
44.32,9.33333
44.36,9.33333
44.4,6.66667
44.44,8
44.48,8.66667
44.52,6
44.56,6.66667
44.6,6
44.64,8.66667
44.68,16
44.72,17.3333
44.76,19.3333
44.8,12.6667
44.84,13.3333
44.88,14
44.92,12.6667
44.96,11.3333
45,13.3333
45.04,11.3333
45.08,15.3333
45.12,19.3333
45.16,21.3333
45.2,35.3333
45.24,39.3333
45.28,41.3333
45.32,24.6667
45.36,44.6667
45.4,45.3333
45.44,52
45.48,43.3333
45.52,43.3333
45.56,48.6667
45.6,30
45.64,21.3333
45.68,21.3333
45.72,26
45.76,28.6667
45.8,40.6667
45.84,30
45.88,44.6667
45.92,34
45.96,29.3333
46,20
46.04,15.3333
46.08,10.6667
46.12,10
46.16,8
46.2,9.33333
46.24,8
46.28,10.6667
46.32,7.33333
46.36,12
46.4,7.33333
46.44,11.3333
46.48,10
46.52,8
46.56,10.6667
46.6,11.3333
46.64,10.6667
46.68,10
46.72,8.66667
46.76,10.6667
46.8,14.6667
46.84,12
46.88,14
46.92,18
46.96,22.6667
47,22
47.04,18
47.08,12.6667
47.12,16
47.16,10
47.2,5.33333
47.24,8
47.28,7.33333
47.32,8.66667
47.36,10.6667
47.4,10
47.44,12.6667
47.48,14
47.52,17.3333
47.56,13.3333
47.6,18
47.64,10
47.68,15.3333
47.72,8.66667
47.76,13.3333
47.8,12
47.84,10
47.88,11.3333
47.92,12.6667
47.96,12.6667
48,13.3333
48.04,14.6667
48.08,16
48.12,11.3333
48.16,16.6667
48.2,18.6667
48.24,15.3333
48.28,20
48.32,16
48.36,22.6667
48.4,16.6667
48.44,26
48.48,18
48.52,28
48.56,30.6667
48.6,36
48.64,37.3333
48.68,32.6667
48.72,26
48.76,24.6667
48.8,21.3333
48.84,19.3333
48.88,16
48.92,15.3333
48.96,15.3333
49,24.6667
49.04,30.6667
49.08,30.6667
49.12,24.6667
49.16,21.3333
49.2,25.3333
49.24,22.6667
49.28,20.6667
49.32,23.3333
49.36,38.6667
49.4,33.3333
49.44,41.3333
49.48,39.3333
49.52,34.6667
49.56,26
49.6,14.6667
49.64,17.3333
49.68,14.6667
49.72,22.6667
49.76,16.6667
49.8,14.6667
49.84,12.6667
49.88,18
49.92,20.6667
49.96,18.6667
50,22.6667
50.04,28.6667
50.08,36
50.12,41.3333
50.16,38
50.2,42.6667
50.24,38.6667
50.28,36
50.32,28
50.36,34
50.4,24.6667
50.44,22
50.48,22
50.52,28
50.56,25.3333
50.6,21.3333
50.64,22
50.68,22.6667
50.72,18.6667
50.76,19.3333
50.8,12
50.84,8.66667
50.88,10.6667
50.92,10.6667
50.96,10
51,8.66667
51.04,11.3333
51.08,10.6667
51.12,10.6667
51.16,9.33333
51.2,8.66667
51.24,8
51.28,8.66667
51.32,5.33333
51.36,7.33333
51.4,12
51.44,9.33333
51.48,8.66667
51.52,6.66667
51.56,10
51.6,11.3333
51.64,8
51.68,13.3333
51.72,10
51.76,12
51.8,17.3333
51.84,19.3333
51.88,22
51.92,30
51.96,28.6667
52,32.6667
52.04,25.3333
52.08,23.3333
52.12,18.6667
52.16,24
52.2,16
52.24,16.6667
52.28,21.3333
52.32,24.6667
52.36,30
52.4,35.3333
52.44,41.3333
52.48,40.6667
52.52,37.3333
52.56,35.3333
52.6,26.6667
52.64,30.6667
52.68,28.6667
52.72,20
52.76,16
52.8,19.3333
52.84,19.3333
52.88,16
52.92,17.3333
52.96,17.3333
53,23.3333
53.04,24
53.08,24
53.12,20.6667
53.16,26
53.2,22.6667
53.24,17.3333
53.28,15.3333
53.32,17.3333
53.36,12
53.4,14
53.44,13.3333
53.48,12.6667
53.52,15.3333
53.56,15.3333
53.6,16
53.64,13.3333
53.68,15.3333
53.72,14.6667
53.76,19.3333
53.8,21.3333
53.84,24
53.88,26
53.92,26
53.96,26.6667
54,30.6667
54.04,30
54.08,31.3333
54.12,28.6667
54.16,28
54.2,32.6667
54.24,28.6667
54.28,24
54.32,17.3333
54.36,12
54.4,16
54.44,8.66667
54.48,5.33333
54.52,6.66667
54.56,10
54.6,7.33333
54.64,11.3333
54.68,8.66667
54.72,10.6667
54.76,8
54.8,8.66667
54.84,8
54.88,10
54.92,10
54.96,9.33333
55,10
55.04,7.33333
55.08,7.33333
55.12,7.33333
55.16,8
55.2,10
55.24,9.33333
55.28,12
55.32,10.6667
55.36,10
55.4,12.6667
55.44,10
55.48,6.66667
55.52,8.66667
55.56,14
55.6,17.3333
55.64,16
55.68,19.3333
55.72,24
55.76,24.6667
55.8,30
55.84,24
55.88,31.3333
55.92,28
55.96,21.3333
56,26
56.04,16.6667
56.08,19.3333
56.12,18.6667
56.16,16.6667
56.2,16
56.24,12.6667
56.28,14
56.32,20
56.36,18.6667
56.4,18.6667
56.44,22.6667
56.48,23.3333
56.52,24
56.56,27.3333
56.6,33.3333
56.64,29.3333
56.68,24
56.72,28
56.76,40.6667
56.8,34
56.84,34
56.88,24
56.92,25.3333
56.96,18.6667
57,26
57.04,24.6667
57.08,22.6667
57.12,26.6667
57.16,19.3333
57.2,17.3333
57.24,16.6667
57.28,22.6667
57.32,15.3333
57.36,20.6667
57.4,10.6667
57.44,7.33333
57.48,8
57.52,12
57.56,9.33333
57.6,10
57.64,11.3333
57.68,6.66667
57.72,12
57.76,10.6667
57.8,8
57.84,6
57.88,8.66667
57.92,6.66667
57.96,12
58,5.33333
58.04,6.66667
58.08,11.3333
58.12,10.6667
58.16,9.33333
58.2,8.66667
58.24,7.33333
58.28,8
58.32,9.33333
58.36,8.66667
58.4,8.66667
58.44,6.66667
58.48,6.66667
58.52,8.66667
58.56,11.3333
58.6,17.3333
58.64,8.66667
58.68,8
58.72,12
58.76,16
58.8,15.3333
58.84,10.6667
58.88,11.3333
58.92,13.3333
58.96,16
59,15.3333
59.04,12.6667
59.08,16
59.12,11.3333
59.16,14
59.2,7.33333
59.24,12
59.28,16
59.32,11.3333
59.36,13.3333
59.4,12.6667
59.44,9.33333
59.48,10.6667
59.52,15.3333
59.56,12
59.6,8
59.64,11.3333
59.68,12.6667
59.72,12
59.76,13.3333
59.8,10
59.84,8.66667
59.88,6.66667
59.92,8.66667
59.96,9.33333
60,9.33333