File: XRD_graph/XRD_data/Bi2ZnB2O7_XRD/Bi2ZnB2O7_3kome.txt
2theta,Intensity
10,7
10.04,5
10.08,4
10.12,4
10.16,6
10.2,5
10.24,5
10.28,3
10.32,5
10.36,10
10.4,4
10.44,5
10.48,7
10.52,8
10.56,6
10.6,6
10.64,4
10.68,9
10.72,4
10.76,7
10.8,5
10.84,8
10.88,3
10.92,4
10.96,4
11,7
11.04,7
11.08,7
11.12,5
11.16,13
11.2,11
11.24,4
11.28,4
11.32,6
11.36,10
11.4,7
11.44,10
11.48,7
11.52,9
11.56,8
11.6,6
11.64,3
11.68,3
11.72,7
11.76,4
11.8,9
11.84,7
11.88,7
11.92,2
11.96,8
12,6
12.04,8
12.08,8
12.12,6
12.16,5
12.2,7
12.24,9
12.28,6
12.32,15
12.36,10
12.4,6
12.44,8
12.48,8
12.52,11
12.56,10
12.6,6
12.64,4
12.68,8
12.72,9
12.76,4
12.8,7
12.84,11
12.88,6
12.92,5
12.96,10
13,6
13.04,3
13.08,6
13.12,3
13.16,9
13.2,7
13.24,5
13.28,10
13.32,7
13.36,8
13.4,8
13.44,6
13.48,6
13.52,9
13.56,6
13.6,5
13.64,8
13.68,6
13.72,5
13.76,10
13.8,6
13.84,4
13.88,9
13.92,10
13.96,8
14,5
14.04,11
14.08,9
14.12,12
14.16,6
14.2,9
14.24,6
14.28,12
14.32,8
14.36,6
14.4,9
14.44,7
14.48,4
14.52,14
14.56,8
14.6,7
14.64,3
14.68,6
14.72,12
14.76,12
14.8,16
14.84,10
14.88,7
14.92,12
14.96,11
15,12
15.04,6
15.08,7
15.12,14
15.16,8
15.2,12
15.24,14
15.28,8
15.32,8
15.36,14
15.4,8
15.44,8
15.48,8
15.52,6
15.56,13
15.6,8
15.64,9
15.68,12
15.72,10
15.76,13
15.8,5
15.84,9
15.88,12
15.92,9
15.96,18
16,15
16.04,7
16.08,12
16.12,13
16.16,10
16.2,14
16.24,12
16.28,15
16.32,13
16.36,9
16.4,9
16.44,14
16.48,6
16.52,8
16.56,7
16.6,11
16.64,9
16.68,10
16.72,13
16.76,6
16.8,15
16.84,7
16.88,8
16.92,14
16.96,8
17,10
17.04,12
17.08,12
17.12,7
17.16,10
17.2,11
17.24,11
17.28,11
17.32,11
17.36,12
17.4,19
17.44,23
17.48,31
17.52,17
17.56,17
17.6,7
17.64,10
17.68,11
17.72,21
17.76,14
17.8,23
17.84,36
17.88,59
17.92,83
17.96,96
18,170
18.04,219
18.08,259
18.12,273
18.16,242
18.2,172
18.24,91
18.28,37
18.32,25
18.36,19
18.4,28
18.44,15
18.48,18
18.52,12
18.56,14
18.6,15
18.64,11
18.68,6
18.72,11
18.76,12
18.8,8
18.84,10
18.88,9
18.92,12
18.96,13
19,7
19.04,14
19.08,9
19.12,6
19.16,8
19.2,8
19.24,9
19.28,15
19.32,10
19.36,5
19.4,9
19.44,9
19.48,8
19.52,9
19.56,8
19.6,5
19.64,10
19.68,9
19.72,9
19.76,11
19.8,6
19.84,8
19.88,9
19.92,5
19.96,7
20,6
20.04,9
20.08,9
20.12,7
20.16,10
20.2,14
20.24,12
20.28,8
20.32,9
20.36,10
20.4,9
20.44,4
20.48,9
20.52,10
20.56,8
20.6,8
20.64,5
20.68,5
20.72,11
20.76,7
20.8,10
20.84,8
20.88,7
20.92,5
20.96,5
21,10
21.04,11
21.08,7
21.12,11
21.16,10
21.2,11
21.24,15
21.28,17
21.32,22
21.36,21
21.4,32
21.44,21
21.48,20
21.52,17
21.56,12
21.6,11
21.64,11
21.68,7
21.72,11
21.76,12
21.8,7
21.84,9
21.88,9
21.92,8
21.96,11
22,6
22.04,5
22.08,9
22.12,7
22.16,9
22.2,7
22.24,11
22.28,8
22.32,9
22.36,12
22.4,7
22.44,12
22.48,14
22.52,6
22.56,11
22.6,13
22.64,10
22.68,19
22.72,18
22.76,22
22.8,31
22.84,39
22.88,79
22.92,119
22.96,180
23,229
23.04,191
23.08,172
23.12,76
23.16,30
23.2,20
23.24,15
23.28,18
23.32,8
23.36,16
23.4,10
23.44,12
23.48,16
23.52,11
23.56,11
23.6,13
23.64,10
23.68,8
23.72,9
23.76,6
23.8,9
23.84,9
23.88,9
23.92,9
23.96,5
24,15
24.04,18
24.08,15
24.12,14
24.16,23
24.2,24
24.24,32
24.28,40
24.32,51
24.36,41
24.4,46
24.44,54
24.48,58
24.52,68
24.56,70
24.6,72
24.64,58
24.68,62
24.72,88
24.76,122
24.8,116
24.84,105
24.88,63
24.92,43
24.96,23
25,23
25.04,16
25.08,13
25.12,17
25.16,19
25.2,9
25.24,27
25.28,18
25.32,22
25.36,30
25.4,43
25.44,64
25.48,88
25.52,158
25.56,229
25.6,267
25.64,225
25.68,199
25.72,152
25.76,125
25.8,104
25.84,98
25.88,137
25.92,193
25.96,212
26,199
26.04,159
26.08,82
26.12,51
26.16,27
26.2,26
26.24,20
26.28,25
26.32,14
26.36,15
26.4,16
26.44,23
26.48,13
26.52,21
26.56,10
26.6,12
26.64,10
26.68,11
26.72,11
26.76,15
26.8,19
26.84,8
26.88,13
26.92,16
26.96,18
27,17
27.04,23
27.08,10
27.12,9
27.16,14
27.2,16
27.24,26
27.28,13
27.32,23
27.36,25
27.4,23
27.44,22
27.48,35
27.52,35
27.56,67
27.6,98
27.64,166
27.68,243
27.72,351
27.76,434
27.8,447
27.84,371
27.88,240
27.92,135
27.96,61
28,43
28.04,38
28.08,36
28.12,23
28.16,32
28.2,18
28.24,19
28.28,16
28.32,17
28.36,18
28.4,17
28.44,11
28.48,13
28.52,13
28.56,16
28.6,18
28.64,14
28.68,22
28.72,14
28.76,18
28.8,13
28.84,13
28.88,14
28.92,18
28.96,16
29,26
29.04,24
29.08,34
29.12,27
29.16,38
29.2,32
29.24,72
29.28,138
29.32,184
29.36,352
29.4,484
29.44,500
29.48,570
29.52,430
29.56,264
29.6,137
29.64,61
29.68,41
29.72,37
29.76,24
29.8,25
29.84,24
29.88,24
29.92,15
29.96,17
30,14
30.04,22
30.08,15
30.12,21
30.16,17
30.2,15
30.24,27
30.28,30
30.32,33
30.36,43
30.4,60
30.44,95
30.48,102
30.52,103
30.56,84
30.6,62
30.64,53
30.68,32
30.72,19
30.76,17
30.8,17
30.84,17
30.88,13
30.92,15
30.96,18
31,11
31.04,17
31.08,15
31.12,20
31.16,23
31.2,23
31.24,25
31.28,26
31.32,30
31.36,48
31.4,76
31.44,134
31.48,241
31.52,342
31.56,387
31.6,331
31.64,216
31.68,146
31.72,153
31.76,200
31.8,322
31.84,378
31.88,362
31.92,287
31.96,162
32,85
32.04,35
32.08,34
32.12,27
32.16,29
32.2,20
32.24,19
32.28,21
32.32,28
32.36,34
32.4,51
32.44,68
32.48,71
32.52,60
32.56,46
32.6,32
32.64,26
32.68,32
32.72,35
32.76,41
32.8,50
32.84,73
32.88,127
32.92,196
32.96,288
33,331
33.04,348
33.08,295
33.12,228
33.16,142
33.2,86
33.24,46
33.28,34
33.32,25
33.36,24
33.4,20
33.44,26
33.48,33
33.52,32
33.56,35
33.6,29
33.64,19
33.68,22
33.72,17
33.76,18
33.8,11
33.84,15
33.88,11
33.92,14
33.96,16
34,22
34.04,30
34.08,33
34.12,46
34.16,31
34.2,22
34.24,19
34.28,23
34.32,19
34.36,18
34.4,22
34.44,27
34.48,24
34.52,23
34.56,18
34.6,23
34.64,22
34.68,24
34.72,32
34.76,29
34.8,24
34.84,18
34.88,8
34.92,13
34.96,7
35,14
35.04,9
35.08,6
35.12,8
35.16,9
35.2,12
35.24,15
35.28,16
35.32,18
35.36,25
35.4,29
35.44,20
35.48,15
35.52,9
35.56,10
35.6,13
35.64,8
35.68,6
35.72,12
35.76,9
35.8,12
35.84,14
35.88,12
35.92,10
35.96,11
36,13
36.04,19
36.08,19
36.12,21
36.16,27
36.2,43
36.24,42
36.28,44
36.32,41
36.36,33
36.4,24
36.44,28
36.48,32
36.52,49
36.56,66
36.6,74
36.64,78
36.68,82
36.72,101
36.76,99
36.8,76
36.84,82
36.88,80
36.92,80
36.96,97
37,109
37.04,82
37.08,54
37.12,39
37.16,21
37.2,15
37.24,16
37.28,12
37.32,18
37.36,16
37.4,20
37.44,22
37.48,32
37.52,42
37.56,44
37.6,47
37.64,39
37.68,35
37.72,25
37.76,12
37.8,12
37.84,14
37.88,26
37.92,18
37.96,21
38,25
38.04,36
38.08,16
38.12,16
38.16,19
38.2,11
38.24,12
38.28,16
38.32,32
38.36,37
38.4,39
38.44,35
38.48,25
38.52,16
38.56,18
38.6,13
38.64,14
38.68,6
38.72,26
38.76,19
38.8,29
38.84,34
38.88,43
38.92,45
38.96,45
39,27
39.04,15
39.08,14
39.12,8
39.16,14
39.2,7
39.24,12
39.28,12
39.32,8
39.36,8
39.4,14
39.44,16
39.48,16
39.52,18
39.56,29
39.6,26
39.64,36
39.68,53
39.72,53
39.76,43
39.8,33
39.84,20
39.88,13
39.92,12
39.96,9
40,12
40.04,4
40.08,9
40.12,9
40.16,6
40.2,12
40.24,3
40.28,10
40.32,6
40.36,11
40.4,10
40.44,8
40.48,10
40.52,10
40.56,9
40.6,12
40.64,6
40.68,9
40.72,11
40.76,7
40.8,10
40.84,11
40.88,8
40.92,9
40.96,10
41,8
41.04,10
41.08,14
41.12,15
41.16,27
41.2,31
41.24,31
41.28,31
41.32,19
41.36,30
41.4,46
41.44,48
41.48,62
41.52,57
41.56,51
41.6,40
41.64,48
41.68,75
41.72,71
41.76,65
41.8,62
41.84,70
41.88,45
41.92,37
41.96,18
42,16
42.04,16
42.08,11
42.12,15
42.16,8
42.2,12
42.24,7
42.28,11
42.32,11
42.36,8
42.4,15
42.44,9
42.48,15
42.52,17
42.56,15
42.6,13
42.64,12
42.68,14
42.72,9
42.76,11
42.8,12
42.84,7
42.88,7
42.92,3
42.96,6
43,12
43.04,8
43.08,9
43.12,5
43.16,10
43.2,11
43.24,11
43.28,8
43.32,9
43.36,7
43.4,6
43.44,9
43.48,14
43.52,23
43.56,24
43.6,37
43.64,42
43.68,62
43.72,67
43.76,77
43.8,91
43.84,71
43.88,61
43.92,46
43.96,35
44,26
44.04,17
44.08,14
44.12,11
44.16,11
44.2,16
44.24,17
44.28,28
44.32,17
44.36,28
44.4,21
44.44,21
44.48,19
44.52,12
44.56,10
44.6,10
44.64,11
44.68,12
44.72,17
44.76,9
44.8,7
44.84,15
44.88,12
44.92,13
44.96,14
45,14
45.04,18
45.08,17
45.12,16
45.16,26
45.2,37
45.24,68
45.28,132
45.32,155
45.36,149
45.4,118
45.44,126
45.48,150
45.52,158
45.56,195
45.6,157
45.64,140
45.68,106
45.72,68
45.76,47
45.8,40
45.84,50
45.88,54
45.92,58
45.96,44
46,34
46.04,34
46.08,25
46.12,16
46.16,17
46.2,16
46.24,9
46.28,11
46.32,16
46.36,9
46.4,12
46.44,10
46.48,14
46.52,19
46.56,18
46.6,28
46.64,31
46.68,15
46.72,15
46.76,20
46.8,8
46.84,12
46.88,6
46.92,5
46.96,9
47,9
47.04,15
47.08,13
47.12,9
47.16,10
47.2,14
47.24,7
47.28,14
47.32,13
47.36,10
47.4,7
47.44,11
47.48,14
47.52,23
47.56,23
47.6,16
47.64,25
47.68,31
47.72,27
47.76,18
47.8,16
47.84,23
47.88,21
47.92,15
47.96,11
48,12
48.04,9
48.08,17
48.12,12
48.16,19
48.2,41
48.24,52
48.28,79
48.32,94
48.36,93
48.4,78
48.44,55
48.48,57
48.52,36
48.56,31
48.6,23
48.64,20
48.68,37
48.72,45
48.76,84
48.8,104
48.84,92
48.88,95
48.92,59
48.96,59
49,34
49.04,33
49.08,42
49.12,41
49.16,30
49.2,44
49.24,27
49.28,36
49.32,26
49.36,29
49.4,14
49.44,10
49.48,16
49.52,22
49.56,24
49.6,25
49.64,20
49.68,16
49.72,24
49.76,28
49.8,23
49.84,31
49.88,28
49.92,33
49.96,32
50,33
50.04,21
50.08,20
50.12,22
50.16,20
50.2,31
50.24,42
50.28,56
50.32,59
50.36,62
50.4,40
50.44,47
50.48,41
50.52,53
50.56,68
50.6,66
50.64,57
50.68,43
50.72,40
50.76,40
50.8,29
50.84,27
50.88,26
50.92,22
50.96,22
51,22
51.04,19
51.08,15
51.12,19
51.16,15
51.2,16
51.24,20
51.28,21
51.32,21
51.36,17
51.4,16
51.44,18
51.48,14
51.52,16
51.56,15
51.6,14
51.64,12
51.68,10
51.72,11
51.76,9
51.8,14
51.84,13
51.88,24
51.92,20
51.96,29
52,62
52.04,78
52.08,83
52.12,77
52.16,67
52.2,64
52.24,63
52.28,40
52.32,49
52.36,65
52.4,98
52.44,129
52.48,176
52.52,215
52.56,217
52.6,191
52.64,196
52.68,163
52.72,139
52.76,91
52.8,64
52.84,63
52.88,49
52.92,30
52.96,34
53,39
53.04,35
53.08,51
53.12,60
53.16,67
53.2,74
53.24,74
53.28,71
53.32,58
53.36,53
53.4,46
53.44,35
53.48,32
53.52,28
53.56,29
53.6,28
53.64,23
53.68,25
53.72,28
53.76,30
53.8,31
53.84,35
53.88,62
53.92,63
53.96,75
54,76
54.04,70
54.08,95
54.12,106
54.16,146
54.2,149
54.24,119
54.28,107
54.32,101
54.36,71
54.4,57
54.44,37
54.48,25
54.52,31
54.56,23
54.6,18
54.64,14
54.68,16
54.72,16
54.76,15
54.8,14
54.84,14
54.88,20
54.92,20
54.96,15
55,17
55.04,18
55.08,10
55.12,14
55.16,11
55.2,12
55.24,8
55.28,13
55.32,8
55.36,11
55.4,16
55.44,12
55.48,12
55.52,22
55.56,16
55.6,15
55.64,32
55.68,33
55.72,43
55.76,68
55.8,83
55.84,81
55.88,87
55.92,74
55.96,67
56,57
56.04,46
56.08,34
56.12,24
56.16,25
56.2,19
56.24,23
56.28,21
56.32,29
56.36,39
56.4,37
56.44,49
56.48,47
56.52,41
56.56,51
56.6,52
56.64,44
56.68,48
56.72,35
56.76,42
56.8,48
56.84,44
56.88,43
56.92,43
56.96,43
57,47
57.04,59
57.08,35
57.12,39
57.16,44
57.2,44
57.24,55
57.28,57
57.32,48
57.36,31
57.4,34
57.44,38
57.48,28
57.52,14
57.56,30
57.6,15
57.64,24
57.68,12
57.72,12
57.76,11
57.8,18
57.84,6
57.88,13
57.92,10
57.96,11
58,13
58.04,11
58.08,11
58.12,19
58.16,8
58.2,12
58.24,14
58.28,8
58.32,15
58.36,11
58.4,8
58.44,10
58.48,12
58.52,8
58.56,14
58.6,15
58.64,14
58.68,13
58.72,14
58.76,11
58.8,18
58.84,26
58.88,32
58.92,32
58.96,35
59,20
59.04,27
59.08,34
59.12,36
59.16,27
59.2,19
59.24,24
59.28,23
59.32,17
59.36,14
59.4,20
59.44,9
59.48,11
59.52,10
59.56,11
59.6,7
59.64,15
59.68,9
59.72,9
59.76,13
59.8,16
59.84,20
59.88,10
59.92,9
59.96,11
60,13