File: XRD_graph/XRD_data/Bi2ZnB2O7_XRD/Bi2ZnB1.6C0.4O7_2doyaki.txt
2theta,Intensity
10,6.66667
10.04,6
10.08,3.33333
10.12,4
10.16,5.33333
10.2,5.33333
10.24,6.66667
10.28,5.33333
10.32,3.33333
10.36,7.33333
10.4,4
10.44,4
10.48,3.33333
10.52,4.66667
10.56,5.33333
10.6,5.33333
10.64,4.66667
10.68,2.66667
10.72,4
10.76,4
10.8,6
10.84,2.66667
10.88,6
10.92,4.66667
10.96,6.66667
11,4.66667
11.04,7.33333
11.08,4
11.12,8
11.16,5.33333
11.2,8
11.24,8.66667
11.28,5.33333
11.32,8
11.36,5.33333
11.4,8
11.44,8.66667
11.48,2
11.52,4.66667
11.56,8
11.6,6
11.64,4
11.68,4.66667
11.72,9.33333
11.76,4.66667
11.8,8
11.84,8
11.88,5.33333
11.92,3.33333
11.96,9.33333
12,7.33333
12.04,6.66667
12.08,5.33333
12.12,2.66667
12.16,6
12.2,6.66667
12.24,8.66667
12.28,6.66667
12.32,9.33333
12.36,11.3333
12.4,10
12.44,8
12.48,9.33333
12.52,8
12.56,4.66667
12.6,8
12.64,9.33333
12.68,4.66667
12.72,6
12.76,10.6667
12.8,6.66667
12.84,7.33333
12.88,9.33333
12.92,10
12.96,6
13,7.33333
13.04,4.66667
13.08,6.66667
13.12,6
13.16,10
13.2,7.33333
13.24,8
13.28,6
13.32,8.66667
13.36,4.66667
13.4,7.33333
13.44,12
13.48,7.33333
13.52,6.66667
13.56,6
13.6,7.33333
13.64,9.33333
13.68,6.66667
13.72,6
13.76,4.66667
13.8,8
13.84,7.33333
13.88,7.33333
13.92,11.3333
13.96,6
14,9.33333
14.04,8
14.08,10
14.12,4
14.16,10
14.2,9.33333
14.24,9.33333
14.28,9.33333
14.32,10.6667
14.36,8.66667
14.4,6.66667
14.44,13.3333
14.48,4.66667
14.52,12.6667
14.56,8
14.6,4
14.64,5.33333
14.68,7.33333
14.72,8.66667
14.76,12
14.8,6.66667
14.84,4.66667
14.88,5.33333
14.92,8
14.96,9.33333
15,9.33333
15.04,4
15.08,7.33333
15.12,4.66667
15.16,10
15.2,8
15.24,5.33333
15.28,6
15.32,10.6667
15.36,12.6667
15.4,8
15.44,10
15.48,10
15.52,9.33333
15.56,10
15.6,6.66667
15.64,8.66667
15.68,8.66667
15.72,8.66667
15.76,9.33333
15.8,7.33333
15.84,9.33333
15.88,11.3333
15.92,6.66667
15.96,10
16,8.66667
16.04,6
16.08,6.66667
16.12,10.6667
16.16,12.6667
16.2,11.3333
16.24,10
16.28,10.6667
16.32,8
16.36,17.3333
16.4,8.66667
16.44,10.6667
16.48,12
16.52,10.6667
16.56,8
16.6,12
16.64,10.6667
16.68,12
16.72,8.66667
16.76,9.33333
16.8,6.66667
16.84,8.66667
16.88,8
16.92,13.3333
16.96,6.66667
17,9.33333
17.04,10
17.08,11.3333
17.12,11.3333
17.16,9.33333
17.2,10
17.24,12
17.28,10.6667
17.32,8
17.36,14
17.4,14.6667
17.44,15.3333
17.48,20.6667
17.52,30
17.56,23.3333
17.6,22.6667
17.64,14.6667
17.68,12.6667
17.72,10.6667
17.76,13.3333
17.8,14
17.84,18.6667
17.88,18.6667
17.92,28.6667
17.96,53.3333
18,65.3333
18.04,94
18.08,140
18.12,168
18.16,192
18.2,196.667
18.24,174
18.28,114.667
18.32,56
18.36,26
18.4,16
18.44,17.3333
18.48,14.6667
18.52,12
18.56,13.3333
18.6,10
18.64,12.6667
18.68,11.3333
18.72,12
18.76,10
18.8,12.6667
18.84,10.6667
18.88,12
18.92,13.3333
18.96,10
19,7.33333
19.04,8.66667
19.08,7.33333
19.12,7.33333
19.16,9.33333
19.2,9.33333
19.24,7.33333
19.28,8.66667
19.32,10.6667
19.36,8.66667
19.4,12
19.44,6
19.48,11.3333
19.52,8
19.56,8
19.6,9.33333
19.64,10.6667
19.68,6
19.72,10.6667
19.76,8.66667
19.8,10
19.84,10
19.88,8
19.92,6.66667
19.96,7.33333
20,7.33333
20.04,8
20.08,6.66667
20.12,6.66667
20.16,8
20.2,9.33333
20.24,8
20.28,9.33333
20.32,6
20.36,6
20.4,9.33333
20.44,8
20.48,8.66667
20.52,6.66667
20.56,6
20.6,12
20.64,8
20.68,8.66667
20.72,8
20.76,6
20.8,6.66667
20.84,9.33333
20.88,10
20.92,9.33333
20.96,8
21,10
21.04,12.6667
21.08,6.66667
21.12,7.33333
21.16,10.6667
21.2,6
21.24,14
21.28,12
21.32,12
21.36,15.3333
21.4,22
21.44,24
21.48,32.6667
21.52,30.6667
21.56,24
21.6,22.6667
21.64,14.6667
21.68,11.3333
21.72,9.33333
21.76,10
21.8,8
21.84,11.3333
21.88,9.33333
21.92,9.33333
21.96,8
22,7.33333
22.04,7.33333
22.08,7.33333
22.12,6
22.16,9.33333
22.2,9.33333
22.24,6
22.28,8
22.32,11.3333
22.36,9.33333
22.4,9.33333
22.44,5.33333
22.48,8.66667
22.52,10
22.56,6.66667
22.6,11.3333
22.64,8
22.68,13.3333
22.72,12
22.76,16.6667
22.8,14
22.84,16
22.88,28
22.92,33.3333
22.96,54.6667
23,84
23.04,109.333
23.08,130
23.12,103.333
23.16,85.3333
23.2,40
23.24,21.3333
23.28,14
23.32,11.3333
23.36,16
23.4,10.6667
23.44,10.6667
23.48,10
23.52,7.33333
23.56,8.66667
23.6,12
23.64,9.33333
23.68,12.6667
23.72,8.66667
23.76,10.6667
23.8,10.6667
23.84,10.6667
23.88,6.66667
23.92,8.66667
23.96,11.3333
24,6.66667
24.04,10.6667
24.08,9.33333
24.12,12.6667
24.16,9.33333
24.2,13.3333
24.24,17.3333
24.28,24
24.32,27.3333
24.36,38.6667
24.4,32
24.44,40
24.48,40
24.52,39.3333
24.56,47.3333
24.6,55.3333
24.64,52.6667
24.68,53.3333
24.72,60.6667
24.76,94.6667
24.8,106
24.84,128
24.88,140
24.92,120
24.96,96.6667
25,48
25.04,24.6667
25.08,26
25.12,23.3333
25.16,14.6667
25.2,22.6667
25.24,20
25.28,16
25.32,14.6667
25.36,21.3333
25.4,18.6667
25.44,26.6667
25.48,35.3333
25.52,50
25.56,84.6667
25.6,109.333
25.64,136.667
25.68,146
25.72,129.333
25.76,124
25.8,107.333
25.84,74
25.88,70.6667
25.92,73.3333
25.96,91.3333
26,101.333
26.04,116
26.08,120.667
26.12,68.6667
26.16,46.6667
26.2,33.3333
26.24,22.6667
26.28,18.6667
26.32,18.6667
26.36,14.6667
26.4,14.6667
26.44,13.3333
26.48,18
26.52,15.3333
26.56,10.6667
26.6,16.6667
26.64,15.3333
26.68,10.6667
26.72,16.6667
26.76,18.6667
26.8,10
26.84,11.3333
26.88,17.3333
26.92,14
26.96,14.6667
27,12.6667
27.04,20.6667
27.08,17.3333
27.12,12.6667
27.16,16
27.2,18.6667
27.24,14
27.28,16
27.32,18
27.36,16
27.4,21.3333
27.44,23.3333
27.48,28.6667
27.52,24
27.56,33.3333
27.6,51.3333
27.64,82.6667
27.68,118.667
27.72,221.333
27.76,336.667
27.8,458.667
27.84,576.667
27.88,598
27.92,513.333
27.96,318.667
28,194
28.04,92.6667
28.08,70
28.12,40.6667
28.16,37.3333
28.2,39.3333
28.24,34.6667
28.28,20
28.32,22.6667
28.36,20
28.4,16.6667
28.44,18.6667
28.48,20
28.52,18.6667
28.56,16.6667
28.6,12.6667
28.64,14.6667
28.68,16
28.72,16.6667
28.76,18
28.8,16.6667
28.84,14
28.88,14.6667
28.92,14.6667
28.96,16.6667
29,22
29.04,20
29.08,19.3333
29.12,24
29.16,27.3333
29.2,22
29.24,26
29.28,40.6667
29.32,62
29.36,88.6667
29.4,164.667
29.44,249.333
29.48,362.667
29.52,400.667
29.56,405.333
29.6,274.667
29.64,162
29.68,83.3333
29.72,40.6667
29.76,32.6667
29.8,26.6667
29.84,20
29.88,20.6667
29.92,20.6667
29.96,16.6667
30,14.6667
30.04,18.6667
30.08,10.6667
30.12,14
30.16,17.3333
30.2,22.6667
30.24,19.3333
30.28,14
30.32,26
30.36,31.3333
30.4,37.3333
30.44,60.6667
30.48,91.3333
30.52,127.333
30.56,129.333
30.6,138
30.64,117.333
30.68,80.6667
30.72,50.6667
30.76,30
30.8,26
30.84,22
30.88,16
30.92,16.6667
30.96,13.3333
31,16
31.04,15.3333
31.08,12.6667
31.12,13.3333
31.16,20
31.2,16.6667
31.24,14.6667
31.28,19.3333
31.32,19.3333
31.36,28
31.4,28.6667
31.44,45.3333
31.48,76
31.52,112.667
31.56,190
31.6,244
31.64,242
31.68,200.667
31.72,149.333
31.76,104.667
31.8,127.333
31.84,153.333
31.88,243.333
31.92,262
31.96,257.333
32,188.667
32.04,113.333
32.08,68.6667
32.12,34.6667
32.16,24.6667
32.2,24.6667
32.24,22.6667
32.28,20
32.32,20
32.36,21.3333
32.4,30
32.44,30.6667
32.48,44
32.52,50.6667
32.56,44
32.6,44
32.64,44
32.68,30
32.72,28
32.76,37.3333
32.8,44.6667
32.84,50
32.88,79.3333
32.92,91.3333
32.96,150.667
33,267.333
33.04,356.667
33.08,405.333
33.12,439.333
33.16,351.333
33.2,260.667
33.24,148
33.28,88
33.32,56
33.36,38.6667
33.4,36.6667
33.44,30
33.48,26
33.52,34
33.56,31.3333
33.6,29.3333
33.64,26.6667
33.68,22
33.72,25.3333
33.76,17.3333
33.8,13.3333
33.84,18.6667
33.88,14.6667
33.92,14
33.96,12.6667
34,15.3333
34.04,15.3333
34.08,16.6667
34.12,22
34.16,19.3333
34.2,23.3333
34.24,23.3333
34.28,16.6667
34.32,18
34.36,15.3333
34.4,16
34.44,24
34.48,27.3333
34.52,27.3333
34.56,30.6667
34.6,26.6667
34.64,23.3333
34.68,19.3333
34.72,23.3333
34.76,22.6667
34.8,30
34.84,26
34.88,23.3333
34.92,17.3333
34.96,12.6667
35,10.6667
35.04,11.3333
35.08,8.66667
35.12,11.3333
35.16,9.33333
35.2,12
35.24,12
35.28,12.6667
35.32,16
35.36,16.6667
35.4,21.3333
35.44,21.3333
35.48,23.3333
35.52,20.6667
35.56,18.6667
35.6,15.3333
35.64,9.33333
35.68,10
35.72,8.66667
35.76,10.6667
35.8,9.33333
35.84,12.6667
35.88,10.6667
35.92,11.3333
35.96,9.33333
36,13.3333
36.04,12
36.08,14.6667
36.12,16
36.16,20.6667
36.2,24.6667
36.24,36.6667
36.28,50
36.32,62.6667
36.36,60.6667
36.4,47.3333
36.44,43.3333
36.48,31.3333
36.52,30
36.56,29.3333
36.6,33.3333
36.64,46
36.68,46.6667
36.72,48.6667
36.76,70
36.8,89.3333
36.84,110.667
36.88,97.3333
36.92,85.3333
36.96,82.6667
37,76
37.04,70
37.08,63.3333
37.12,56
37.16,32
37.2,26.6667
37.24,16
37.28,18
37.32,16.6667
37.36,15.3333
37.4,18.6667
37.44,18
37.48,22
37.52,30
37.56,38.6667
37.6,46
37.64,56.6667
37.68,60.6667
37.72,52.6667
37.76,36
37.8,37.3333
37.84,26.6667
37.88,23.3333
37.92,19.3333
37.96,18.6667
38,18.6667
38.04,22
38.08,25.3333
38.12,17.3333
38.16,14
38.2,13.3333
38.24,12.6667
38.28,14.6667
38.32,21.3333
38.36,18.6667
38.4,26
38.44,29.3333
38.48,34
38.52,30
38.56,21.3333
38.6,17.3333
38.64,17.3333
38.68,13.3333
38.72,14
38.76,18.6667
38.8,16
38.84,14.6667
38.88,20.6667
38.92,30.6667
38.96,26.6667
39,34
39.04,18
39.08,28
39.12,16.6667
39.16,10
39.2,9.33333
39.24,16
39.28,10
39.32,10.6667
39.36,7.33333
39.4,10
39.44,15.3333
39.48,15.3333
39.52,17.3333
39.56,21.3333
39.6,31.3333
39.64,34.6667
39.68,42
39.72,52.6667
39.76,62.6667
39.8,75.3333
39.84,66.6667
39.88,56.6667
39.92,35.3333
39.96,30
40,20
40.04,11.3333
40.08,13.3333
40.12,8.66667
40.16,9.33333
40.2,8
40.24,10.6667
40.28,2
40.32,10.6667
40.36,6.66667
40.4,9.33333
40.44,12.6667
40.48,10.6667
40.52,10.6667
40.56,8.66667
40.6,10.6667
40.64,6.66667
40.68,12
40.72,6.66667
40.76,9.33333
40.8,10
40.84,8
40.88,4.66667
40.92,8.66667
40.96,8
41,12.6667
41.04,12
41.08,10.6667
41.12,16
41.16,12.6667
41.2,18
41.24,20
41.28,22.6667
41.32,27.3333
41.36,21.3333
41.4,26
41.44,30.6667
41.48,42.6667
41.52,38.6667
41.56,40.6667
41.6,45.3333
41.64,44
41.68,60
41.72,62.6667
41.76,89.3333
41.8,84.6667
41.84,85.3333
41.88,82
41.92,76.6667
41.96,52
42,33.3333
42.04,27.3333
42.08,16.6667
42.12,12.6667
42.16,16.6667
42.2,8
42.24,8.66667
42.28,10
42.32,10
42.36,10
42.4,6
42.44,9.33333
42.48,12.6667
42.52,11.3333
42.56,18
42.6,14.6667
42.64,20.6667
42.68,14.6667
42.72,12.6667
42.76,16.6667
42.8,11.3333
42.84,10
42.88,9.33333
42.92,10.6667
42.96,10
43,6
43.04,10.6667
43.08,8.66667
43.12,8
43.16,8.66667
43.2,10
43.24,6.66667
43.28,7.33333
43.32,10.6667
43.36,8.66667
43.4,12
43.44,14
43.48,12
43.52,17.3333
43.56,24.6667
43.6,28
43.64,32
43.68,34
43.72,53.3333
43.76,69.3333
43.8,74.6667
43.84,75.3333
43.88,76.6667
43.92,76
43.96,56.6667
44,32
44.04,35.3333
44.08,27.3333
44.12,15.3333
44.16,13.3333
44.2,12.6667
44.24,10.6667
44.28,12.6667
44.32,16.6667
44.36,17.3333
44.4,19.3333
44.44,21.3333
44.48,14.6667
44.52,14.6667
44.56,14.6667
44.6,14
44.64,12
44.68,11.3333
44.72,8.66667
44.76,9.33333
44.8,12
44.84,7.33333
44.88,8.66667
44.92,8.66667
44.96,10.6667
45,10
45.04,8.66667
45.08,10
45.12,11.3333
45.16,16.6667
45.2,17.3333
45.24,24
45.28,35.3333
45.32,58.6667
45.36,91.3333
45.4,107.333
45.44,104
45.48,97.3333
45.52,109.333
45.56,140
45.6,160.667
45.64,161.333
45.68,146
45.72,124.667
45.76,108.667
45.8,76
45.84,53.3333
45.88,35.3333
45.92,38.6667
45.96,44.6667
46,36.6667
46.04,34
46.08,29.3333
46.12,24
46.16,19.3333
46.2,14.6667
46.24,13.3333
46.28,16
46.32,12
46.36,12
46.4,9.33333
46.44,14
46.48,10
46.52,13.3333
46.56,9.33333
46.6,15.3333
46.64,24.6667
46.68,22
46.72,17.3333
46.76,15.3333
46.8,16.6667
46.84,14
46.88,9.33333
46.92,12
46.96,6.66667
47,14
47.04,8.66667
47.08,12
47.12,10
47.16,8.66667
47.2,9.33333
47.24,9.33333
47.28,6.66667
47.32,9.33333
47.36,10.6667
47.4,10.6667
47.44,11.3333
47.48,13.3333
47.52,17.3333
47.56,14
47.6,20.6667
47.64,21.3333
47.68,22
47.72,22.6667
47.76,29.3333
47.8,26.6667
47.84,21.3333
47.88,18.6667
47.92,20.6667
47.96,15.3333
48,16.6667
48.04,9.33333
48.08,10.6667
48.12,12
48.16,15.3333
48.2,16
48.24,22.6667
48.28,30
48.32,43.3333
48.36,52.6667
48.4,74.6667
48.44,58
48.48,50
48.52,49.3333
48.56,33.3333
48.6,21.3333
48.64,26.6667
48.68,13.3333
48.72,14.6667
48.76,33.3333
48.8,50
48.84,61.3333
48.88,62.6667
48.92,46
48.96,42
49,32.6667
49.04,34.6667
49.08,32.6667
49.12,31.3333
49.16,42
49.2,47.3333
49.24,48
49.28,37.3333
49.32,44
49.36,37.3333
49.4,28.6667
49.44,22.6667
49.48,20
49.52,19.3333
49.56,18
49.6,20
49.64,16.6667
49.68,18.6667
49.72,18.6667
49.76,19.3333
49.8,22
49.84,21.3333
49.88,29.3333
49.92,20.6667
49.96,21.3333
50,18.6667
50.04,20
50.08,19.3333
50.12,18.6667
50.16,16.6667
50.2,13.3333
50.24,20
50.28,21.3333
50.32,36
50.36,42
50.4,35.3333
50.44,44.6667
50.48,38
50.52,40
50.56,38.6667
50.6,39.3333
50.64,43.3333
50.68,42.6667
50.72,33.3333
50.76,33.3333
50.8,29.3333
50.84,25.3333
50.88,26.6667
50.92,22
50.96,16.6667
51,22.6667
51.04,26
51.08,26.6667
51.12,18.6667
51.16,20.6667
51.2,20
51.24,11.3333
51.28,16.6667
51.32,17.3333
51.36,14.6667
51.4,14.6667
51.44,10
51.48,12
51.52,14.6667
51.56,16
51.6,14
51.64,13.3333
51.68,17.3333
51.72,9.33333
51.76,13.3333
51.8,8
51.84,14.6667
51.88,12
51.92,14
51.96,20.6667
52,25.3333
52.04,34
52.08,48
52.12,62
52.16,67.3333
52.2,56.6667
52.24,54.6667
52.28,46
52.32,39.3333
52.36,48
52.4,52
52.44,68
52.48,104.667
52.52,146
52.56,178
52.6,219.333
52.64,232
52.68,218.667
52.72,204
52.76,158
52.8,148.667
52.84,117.333
52.88,83.3333
52.92,66
52.96,47.3333
53,41.3333
53.04,39.3333
53.08,38
53.12,30.6667
53.16,50
53.2,54.6667
53.24,50
53.28,57.3333
53.32,49.3333
53.36,42
53.4,39.3333
53.44,37.3333
53.48,32
53.52,34
53.56,24.6667
53.6,23.3333
53.64,27.3333
53.68,24
53.72,18
53.76,22
53.8,22.6667
53.84,23.3333
53.88,31.3333
53.92,40
53.96,47.3333
54,48.6667
54.04,58.6667
54.08,52.6667
54.12,64.6667
54.16,82
54.2,111.333
54.24,122
54.28,140.667
54.32,122.667
54.36,122.667
54.4,108
54.44,95.3333
54.48,53.3333
54.52,50
54.56,39.3333
54.6,25.3333
54.64,16.6667
54.68,16.6667
54.72,16
54.76,12.6667
54.8,16.6667
54.84,16.6667
54.88,18.6667
54.92,14
54.96,16
55,14
55.04,18
55.08,13.3333
55.12,14
55.16,13.3333
55.2,14.6667
55.24,15.3333
55.28,16.6667
55.32,16
55.36,17.3333
55.4,16
55.44,14.6667
55.48,15.3333
55.52,17.3333
55.56,20
55.6,22
55.64,22
55.68,34.6667
55.72,45.3333
55.76,53.3333
55.8,60
55.84,84
55.88,116.667
55.92,117.333
55.96,124
56,104
56.04,90
56.08,69.3333
56.12,62.6667
56.16,41.3333
56.2,34
56.24,28.6667
56.28,28.6667
56.32,19.3333
56.36,27.3333
56.4,27.3333
56.44,38.6667
56.48,42
56.52,49.3333
56.56,44.6667
56.6,42
56.64,54.6667
56.68,47.3333
56.72,39.3333
56.76,38
56.8,42.6667
56.84,32
56.88,41.3333
56.92,43.3333
56.96,38
57,32.6667
57.04,30.6667
57.08,45.3333
57.12,36
57.16,32
57.2,29.3333
57.24,24.6667
57.28,31.3333
57.32,29.3333
57.36,43.3333
57.4,29.3333
57.44,40
57.48,34.6667
57.52,28.6667
57.56,25.3333
57.6,22
57.64,18
57.68,18.6667
57.72,13.3333
57.76,18.6667
57.8,12
57.84,10.6667
57.88,8
57.92,12.6667
57.96,9.33333
58,12.6667
58.04,10.6667
58.08,16
58.12,12.6667
58.16,7.33333
58.2,8.66667
58.24,10.6667
58.28,12
58.32,13.3333
58.36,16
58.4,10.6667
58.44,12
58.48,9.33333
58.52,9.33333
58.56,11.3333
58.6,9.33333
58.64,9.33333
58.68,17.3333
58.72,11.3333
58.76,8
58.8,22.6667
58.84,10.6667
58.88,19.3333
58.92,30.6667
58.96,31.3333
59,42.6667
59.04,30.6667
59.08,44.6667
59.12,34.6667
59.16,26.6667
59.2,26
59.24,23.3333
59.28,26
59.32,20
59.36,18
59.4,22.6667
59.44,22.6667
59.48,15.3333
59.52,6
59.56,11.3333
59.6,12
59.64,12.6667
59.68,7.33333
59.72,11.3333
59.76,7.33333
59.8,10
59.84,13.3333
59.88,12.6667
59.92,10.6667
59.96,13.3333
60,10