File: XRD_graph/XRD_data/B2ZnBi2O7.txt
2theta,Intensity
10,6
10.04,8
10.08,7
10.12,5
10.16,8
10.2,5
10.24,7
10.28,4
10.32,8
10.36,6
10.4,9
10.44,5
10.48,7
10.52,5
10.56,6
10.6,7
10.64,2
10.68,7
10.72,6
10.76,5
10.8,6
10.84,7
10.88,6
10.92,3
10.96,5
11,5
11.04,5
11.08,4
11.12,3
11.16,5
11.2,4
11.24,5
11.28,7
11.32,9
11.36,3
11.4,5
11.44,4
11.48,6
11.52,8
11.56,5
11.6,9
11.64,7
11.68,5
11.72,3
11.76,4
11.8,3
11.84,5
11.88,3
11.92,4
11.96,4
12,5
12.04,4
12.08,4
12.12,7
12.16,6
12.2,6
12.24,5
12.28,7
12.32,5
12.36,5
12.4,8
12.44,5
12.48,4
12.52,6
12.56,6
12.6,4
12.64,3
12.68,5
12.72,6
12.76,8
12.8,6
12.84,2
12.88,5
12.92,4
12.96,1
13,5
13.04,4
13.08,6
13.12,4
13.16,7
13.2,4
13.24,3
13.28,6
13.32,4
13.36,4
13.4,4
13.44,4
13.48,9
13.52,5
13.56,3
13.6,5
13.64,6
13.68,4
13.72,4
13.76,2
13.8,7
13.84,8
13.88,6
13.92,10
13.96,3
14,5
14.04,4
14.08,4
14.12,5
14.16,7
14.2,6
14.24,8
14.28,4
14.32,3
14.36,6
14.4,8
14.44,6
14.48,6
14.52,4
14.56,3
14.6,5
14.64,4
14.68,7
14.72,5
14.76,7
14.8,2
14.84,6
14.88,8
14.92,5
14.96,3
15,8
15.04,7
15.08,4
15.12,3
15.16,6
15.2,7
15.24,5
15.28,7
15.32,4
15.36,2
15.4,5
15.44,3
15.48,12
15.52,5
15.56,7
15.6,10
15.64,4
15.68,10
15.72,4
15.76,6
15.8,7
15.84,1
15.88,7
15.92,7
15.96,3
16,7
16.04,4
16.08,4
16.12,7
16.16,6
16.2,7
16.24,3
16.28,7
16.32,4
16.36,6
16.4,8
16.44,6
16.48,3
16.52,8
16.56,7
16.6,6
16.64,9
16.68,8
16.72,3
16.76,5
16.8,9
16.84,6
16.88,6
16.92,3
16.96,4
17,10
17.04,6
17.08,7
17.12,7
17.16,7
17.2,12
17.24,7
17.28,8
17.32,7
17.36,9
17.4,6
17.44,11
17.48,6
17.52,6
17.56,5
17.6,3
17.64,7
17.68,6
17.72,5
17.76,12
17.8,7
17.84,16
17.88,13
17.92,17
17.96,26
18,32
18.04,32
18.08,32
18.12,13
18.16,9
18.2,4
18.24,5
18.28,8
18.32,5
18.36,4
18.4,6
18.44,5
18.48,4
18.52,4
18.56,5
18.6,5
18.64,7
18.68,5
18.72,5
18.76,4
18.8,6
18.84,3
18.88,5
18.92,4
18.96,7
19,9
19.04,7
19.08,9
19.12,9
19.16,6
19.2,4
19.24,6
19.28,5
19.32,11
19.36,2
19.4,5
19.44,11
19.48,5
19.52,5
19.56,7
19.6,7
19.64,3
19.68,5
19.72,4
19.76,3
19.8,9
19.84,6
19.88,5
19.92,5
19.96,7
20,4
20.04,6
20.08,5
20.12,4
20.16,6
20.2,6
20.24,4
20.28,7
20.32,4
20.36,6
20.4,4
20.44,7
20.48,4
20.52,5
20.56,8
20.6,5
20.64,6
20.68,7
20.72,4
20.76,5
20.8,6
20.84,4
20.88,6
20.92,8
20.96,8
21,5
21.04,4
21.08,7
21.12,9
21.16,5
21.2,6
21.24,5
21.28,9
21.32,6
21.36,12
21.4,7
21.44,9
21.48,5
21.52,5
21.56,6
21.6,7
21.64,6
21.68,8
21.72,5
21.76,8
21.8,4
21.84,6
21.88,5
21.92,4
21.96,5
22,5
22.04,8
22.08,3
22.12,5
22.16,2
22.2,5
22.24,3
22.28,4
22.32,6
22.36,3
22.4,7
22.44,7
22.48,5
22.52,7
22.56,7
22.6,8
22.64,3
22.68,9
22.72,10
22.76,16
22.8,15
22.84,13
22.88,24
22.92,38
22.96,34
23,22
23.04,11
23.08,9
23.12,5
23.16,5
23.2,6
23.24,8
23.28,6
23.32,7
23.36,4
23.4,6
23.44,4
23.48,7
23.52,4
23.56,3
23.6,6
23.64,3
23.68,3
23.72,4
23.76,7
23.8,5
23.84,3
23.88,6
23.92,7
23.96,5
24,6
24.04,5
24.08,5
24.12,7
24.16,8
24.2,7
24.24,14
24.28,10
24.32,14
24.36,8
24.4,13
24.44,9
24.48,16
24.52,7
24.56,10
24.6,14
24.64,25
24.68,28
24.72,38
24.76,30
24.8,21
24.84,10
24.88,6
24.92,7
24.96,5
25,5
25.04,4
25.08,3
25.12,7
25.16,9
25.2,7
25.24,4
25.28,9
25.32,12
25.36,9
25.4,16
25.44,23
25.48,23
25.52,38
25.56,24
25.6,29
25.64,21
25.68,19
25.72,12
25.76,12
25.8,21
25.84,23
25.88,30
25.92,22
25.96,13
26,10
26.04,6
26.08,6
26.12,4
26.16,10
26.2,14
26.24,9
26.28,5
26.32,5
26.36,8
26.4,7
26.44,3
26.48,5
26.52,3
26.56,11
26.6,8
26.64,6
26.68,13
26.72,3
26.76,5
26.8,8
26.84,5
26.88,7
26.92,8
26.96,5
27,11
27.04,7
27.08,4
27.12,9
27.16,9
27.2,7
27.24,5
27.28,1
27.32,8
27.36,9
27.4,11
27.44,15
27.48,16
27.52,16
27.56,28
27.6,55
27.64,88
27.68,130
27.72,137
27.76,108
27.8,56
27.84,36
27.88,16
27.92,11
27.96,12
28,8
28.04,13
28.08,9
28.12,10
28.16,4
28.2,7
28.24,9
28.28,4
28.32,5
28.36,6
28.4,12
28.44,3
28.48,6
28.52,6
28.56,6
28.6,5
28.64,6
28.68,6
28.72,8
28.76,7
28.8,12
28.84,2
28.88,6
28.92,8
28.96,10
29,11
29.04,5
29.08,12
29.12,13
29.16,11
29.2,21
29.24,25
29.28,50
29.32,87
29.36,89
29.4,100
29.44,82
29.48,40
29.52,24
29.56,10
29.6,8
29.64,9
29.68,9
29.72,9
29.76,4
29.8,4
29.84,7
29.88,7
29.92,10
29.96,8
30,3
30.04,3
30.08,7
30.12,6
30.16,7
30.2,7
30.24,14
30.28,12
30.32,22
30.36,24
30.4,39
30.44,34
30.48,26
30.52,23
30.56,15
30.6,8
30.64,9
30.68,5
30.72,9
30.76,8
30.8,8
30.84,3
30.88,6
30.92,8
30.96,6
31,7
31.04,10
31.08,7
31.12,9
31.16,7
31.2,6
31.24,10
31.28,16
31.32,18
31.36,27
31.4,60
31.44,84
31.48,91
31.52,65
31.56,47
31.6,37
31.64,30
31.68,28
31.72,47
31.76,74
31.8,63
31.84,48
31.88,31
31.92,15
31.96,11
32,9
32.04,6
32.08,7
32.12,6
32.16,8
32.2,9
32.24,8
32.28,14
32.32,14
32.36,12
32.4,20
32.44,15
32.48,15
32.52,10
32.56,12
32.6,8
32.64,9
32.68,15
32.72,15
32.76,25
32.8,32
32.84,54
32.88,70
32.92,86
32.96,90
33,78
33.04,42
33.08,20
33.12,15
33.16,13
33.2,13
33.24,9
33.28,4
33.32,7
33.36,10
33.4,5
33.44,9
33.48,8
33.52,9
33.56,9
33.6,6
33.64,5
33.68,5
33.72,9
33.76,7
33.8,4
33.84,4
33.88,6
33.92,5
33.96,6
34,7
34.04,10
34.08,10
34.12,9
34.16,7
34.2,4
34.24,7
34.28,12
34.32,7
34.36,11
34.4,10
34.44,5
34.48,4
34.52,8
34.56,8
34.6,9
34.64,5
34.68,5
34.72,9
34.76,7
34.8,5
34.84,5
34.88,6
34.92,3
34.96,5
35,4
35.04,6
35.08,3
35.12,4
35.16,6
35.2,7
35.24,9
35.28,12
35.32,7
35.36,7
35.4,6
35.44,6
35.48,3
35.52,3
35.56,3
35.6,4
35.64,2
35.68,4
35.72,4
35.76,2
35.8,6
35.84,3
35.88,6
35.92,4
35.96,9
36,7
36.04,6
36.08,4
36.12,11
36.16,16
36.2,13
36.24,19
36.28,9
36.32,14
36.36,6
36.4,10
36.44,10
36.48,14
36.52,12
36.56,15
36.6,24
36.64,34
36.68,32
36.72,25
36.76,14
36.8,15
36.84,16
36.88,15
36.92,13
36.96,18
37,11
37.04,11
37.08,11
37.12,4
37.16,7
37.2,2
37.24,13
37.28,6
37.32,9
37.36,8
37.4,13
37.44,17
37.48,18
37.52,15
37.56,14
37.6,11
37.64,8
37.68,9
37.72,8
37.76,7
37.8,5
37.84,6
37.88,10
37.92,7
37.96,6
38,9
38.04,7
38.08,4
38.12,5
38.16,2
38.2,12
38.24,7
38.28,7
38.32,13
38.36,9
38.4,4
38.44,4
38.48,4
38.52,7
38.56,4
38.6,6
38.64,3
38.68,5
38.72,6
38.76,10
38.8,8
38.84,13
38.88,9
38.92,14
38.96,7
39,2
39.04,2
39.08,4
39.12,2
39.16,7
39.2,3
39.24,7
39.28,4
39.32,3
39.36,2
39.4,2
39.44,6
39.48,8
39.52,7
39.56,16
39.6,28
39.64,12
39.68,8
39.72,12
39.76,5
39.8,9
39.84,8
39.88,3
39.92,5
39.96,6
40,1
40.04,7
40.08,2
40.12,7
40.16,4
40.2,2
40.24,5
40.28,5
40.32,3
40.36,3
40.4,3
40.44,3
40.48,5
40.52,3
40.56,8
40.6,8
40.64,5
40.68,6
40.72,4
40.76,4
40.8,2
40.84,5
40.88,4
40.92,4
40.96,4
41,7
41.04,9
41.08,10
41.12,3
41.16,6
41.2,11
41.24,3
41.28,6
41.32,4
41.36,10
41.4,16
41.44,14
41.48,11
41.52,15
41.56,14
41.6,24
41.64,27
41.68,25
41.72,27
41.76,18
41.8,20
41.84,10
41.88,10
41.92,6
41.96,4
42,5
42.04,7
42.08,6
42.12,3
42.16,7
42.2,3
42.24,3
42.28,2
42.32,9
42.36,4
42.4,7
42.44,11
42.48,5
42.52,5
42.56,6
42.6,5
42.64,4
42.68,7
42.72,2
42.76,7
42.8,5
42.84,4
42.88,2
42.92,4
42.96,5
43,7
43.04,4
43.08,5
43.12,8
43.16,3
43.2,3
43.24,8
43.28,4
43.32,4
43.36,10
43.4,4
43.44,13
43.48,12
43.52,13
43.56,14
43.6,24
43.64,27
43.68,31
43.72,22
43.76,17
43.8,18
43.84,14
43.88,9
43.92,7
43.96,7
44,9
44.04,6
44.08,4
44.12,6
44.16,5
44.2,8
44.24,9
44.28,9
44.32,10
44.36,6
44.4,11
44.44,6
44.48,5
44.52,5
44.56,4
44.6,4
44.64,5
44.68,3
44.72,7
44.76,4
44.8,7
44.84,5
44.88,7
44.92,4
44.96,6
45,7
45.04,6
45.08,12
45.12,11
45.16,15
45.2,21
45.24,29
45.28,34
45.32,20
45.36,27
45.4,35
45.44,50
45.48,51
45.52,53
45.56,40
45.6,26
45.64,25
45.68,16
45.72,13
45.76,15
45.8,14
45.84,12
45.88,14
45.92,12
45.96,13
46,6
46.04,5
46.08,10
46.12,6
46.16,10
46.2,6
46.24,5
46.28,9
46.32,4
46.36,5
46.4,4
46.44,8
46.48,7
46.52,12
46.56,7
46.6,6
46.64,8
46.68,5
46.72,3
46.76,7
46.8,8
46.84,5
46.88,7
46.92,5
46.96,5
47,5
47.04,4
47.08,6
47.12,6
47.16,7
47.2,6
47.24,4
47.28,5
47.32,3
47.36,8
47.4,4
47.44,6
47.48,8
47.52,7
47.56,9
47.6,17
47.64,10
47.68,7
47.72,13
47.76,7
47.8,8
47.84,4
47.88,8
47.92,4
47.96,7
48,4
48.04,8
48.08,3
48.12,8
48.16,13
48.2,20
48.24,22
48.28,30
48.32,17
48.36,21
48.4,14
48.44,22
48.48,13
48.52,5
48.56,4
48.6,10
48.64,15
48.68,15
48.72,16
48.76,21
48.8,18
48.84,15
48.88,13
48.92,14
48.96,6
49,16
49.04,15
49.08,17
49.12,12
49.16,14
49.2,10
49.24,16
49.28,10
49.32,4
49.36,5
49.4,7
49.44,4
49.48,13
49.52,19
49.56,6
49.6,3
49.64,5
49.68,7
49.72,11
49.76,14
49.8,8
49.84,9
49.88,10
49.92,7
49.96,10
50,8
50.04,8
50.08,13
50.12,13
50.16,19
50.2,17
50.24,20
50.28,19
50.32,16
50.36,15
50.4,11
50.44,15
50.48,17
50.52,12
50.56,8
50.6,17
50.64,9
50.68,12
50.72,15
50.76,18
50.8,8
50.84,6
50.88,7
50.92,6
50.96,6
51,7
51.04,8
51.08,7
51.12,10
51.16,7
51.2,10
51.24,10
51.28,7
51.32,6
51.36,8
51.4,6
51.44,7
51.48,8
51.52,4
51.56,6
51.6,9
51.64,3
51.68,7
51.72,6
51.76,10
51.8,10
51.84,9
51.88,13
51.92,14
51.96,16
52,14
52.04,9
52.08,16
52.12,16
52.16,13
52.2,16
52.24,20
52.28,16
52.32,24
52.36,34
52.4,59
52.44,68
52.48,72
52.52,60
52.56,60
52.6,47
52.64,41
52.68,26
52.72,25
52.76,22
52.8,12
52.84,13
52.88,18
52.92,16
52.96,17
53,10
53.04,25
53.08,28
53.12,22
53.16,17
53.2,23
53.24,12
53.28,10
53.32,12
53.36,15
53.4,8
53.44,13
53.48,9
53.52,10
53.56,11
53.6,8
53.64,7
53.68,10
53.72,7
53.76,12
53.8,10
53.84,12
53.88,12
53.92,17
53.96,20
54,20
54.04,29
54.08,41
54.12,54
54.16,53
54.2,36
54.24,29
54.28,31
54.32,24
54.36,12
54.4,6
54.44,7
54.48,8
54.52,10
54.56,6
54.6,8
54.64,7
54.68,6
54.72,7
54.76,6
54.8,7
54.84,8
54.88,7
54.92,4
54.96,10
55,6
55.04,7
55.08,6
55.12,5
55.16,5
55.2,7
55.24,10
55.28,7
55.32,9
55.36,4
55.4,7
55.44,11
55.48,14
55.52,10
55.56,13
55.6,17
55.64,22
55.68,37
55.72,39
55.76,39
55.8,39
55.84,31
55.88,28
55.92,27
55.96,13
56,10
56.04,13
56.08,12
56.12,14
56.16,9
56.2,9
56.24,12
56.28,11
56.32,12
56.36,16
56.4,10
56.44,16
56.48,15
56.52,15
56.56,13
56.6,5
56.64,13
56.68,14
56.72,11
56.76,16
56.8,13
56.84,13
56.88,16
56.92,22
56.96,11
57,13
57.04,13
57.08,12
57.12,21
57.16,21
57.2,17
57.24,17
57.28,16
57.32,13
57.36,15
57.4,10
57.44,1
57.48,8
57.52,6
57.56,9
57.6,10
57.64,11
57.68,8
57.72,2
57.76,7
57.8,9
57.84,3
57.88,6
57.92,9
57.96,3
58,13
58.04,5
58.08,7
58.12,4
58.16,8
58.2,7
58.24,3
58.28,6
58.32,7
58.36,8
58.4,10
58.44,11
58.48,11
58.52,13
58.56,6
58.6,13
58.64,5
58.68,5
58.72,11
58.76,9
58.8,15
58.84,17
58.88,14
58.92,19
58.96,12
59,10
59.04,9
59.08,10
59.12,16
59.16,8
59.2,11
59.24,9
59.28,14
59.32,7
59.36,7
59.4,13
59.44,8
59.48,12
59.52,12
59.56,7
59.6,6
59.64,7
59.68,9
59.72,8
59.76,5
59.8,8
59.84,8
59.88,8
59.92,1
59.96,11
60,5