File: XRD_graph/XRD_data/B2ZnBi2O7_2kome.txt
2theta,Intensity
10,4
10.04,6
10.08,5
10.12,4
10.16,8
10.2,5
10.24,5
10.28,5
10.32,3
10.36,8
10.4,6
10.44,6
10.48,6
10.52,6
10.56,9
10.6,10
10.64,4
10.68,4
10.72,7
10.76,6
10.8,7
10.84,6
10.88,2
10.92,8
10.96,6
11,6
11.04,5
11.08,7
11.12,6
11.16,8
11.2,8
11.24,6
11.28,6
11.32,4
11.36,8
11.4,8
11.44,8
11.48,6
11.52,6
11.56,8
11.6,6
11.64,5
11.68,5
11.72,4
11.76,6
11.8,4
11.84,6
11.88,8
11.92,8
11.96,5
12,5
12.04,7
12.08,8
12.12,9
12.16,11
12.2,13
12.24,18
12.28,24
12.32,33
12.36,35
12.4,26
12.44,19
12.48,13
12.52,17
12.56,15
12.6,10
12.64,10
12.68,11
12.72,16
12.76,18
12.8,31
12.84,53
12.88,52
12.92,42
12.96,27
13,12
13.04,8
13.08,14
13.12,10
13.16,9
13.2,6
13.24,10
13.28,11
13.32,9
13.36,5
13.4,7
13.44,7
13.48,6
13.52,4
13.56,6
13.6,8
13.64,4
13.68,8
13.72,12
13.76,11
13.8,7
13.84,8
13.88,15
13.92,10
13.96,9
14,11
14.04,10
14.08,11
14.12,21
14.16,23
14.2,16
14.24,29
14.28,33
14.32,35
14.36,36
14.4,37
14.44,24
14.48,17
14.52,14
14.56,15
14.6,9
14.64,18
14.68,12
14.72,11
14.76,11
14.8,11
14.84,15
14.88,9
14.92,12
14.96,9
15,6
15.04,8
15.08,8
15.12,6
15.16,4
15.2,8
15.24,11
15.28,8
15.32,10
15.36,2
15.4,5
15.44,11
15.48,14
15.52,12
15.56,13
15.6,15
15.64,15
15.68,13
15.72,19
15.76,16
15.8,22
15.84,37
15.88,46
15.92,55
15.96,67
16,75
16.04,60
16.08,65
16.12,23
16.16,14
16.2,17
16.24,11
16.28,6
16.32,12
16.36,6
16.4,7
16.44,9
16.48,9
16.52,16
16.56,9
16.6,12
16.64,11
16.68,13
16.72,10
16.76,14
16.8,11
16.84,9
16.88,7
16.92,11
16.96,9
17,6
17.04,12
17.08,15
17.12,12
17.16,9
17.2,11
17.24,10
17.28,11
17.32,15
17.36,21
17.4,16
17.44,22
17.48,27
17.52,26
17.56,26
17.6,27
17.64,29
17.68,21
17.72,19
17.76,11
17.8,9
17.84,14
17.88,14
17.92,14
17.96,11
18,10
18.04,10
18.08,14
18.12,12
18.16,9
18.2,14
18.24,9
18.28,14
18.32,8
18.36,13
18.4,10
18.44,7
18.48,9
18.52,10
18.56,9
18.6,6
18.64,8
18.68,8
18.72,14
18.76,7
18.8,9
18.84,8
18.88,13
18.92,7
18.96,11
19,13
19.04,17
19.08,22
19.12,23
19.16,15
19.2,9
19.24,9
19.28,14
19.32,14
19.36,8
19.4,8
19.44,6
19.48,13
19.52,7
19.56,14
19.6,10
19.64,11
19.68,15
19.72,13
19.76,14
19.8,15
19.84,13
19.88,8
19.92,8
19.96,11
20,8
20.04,14
20.08,14
20.12,11
20.16,9
20.2,11
20.24,14
20.28,11
20.32,8
20.36,5
20.4,7
20.44,13
20.48,10
20.52,12
20.56,12
20.6,18
20.64,16
20.68,19
20.72,15
20.76,35
20.8,34
20.84,40
20.88,33
20.92,23
20.96,16
21,18
21.04,15
21.08,15
21.12,16
21.16,14
21.2,8
21.24,11
21.28,10
21.32,13
21.36,13
21.4,15
21.44,17
21.48,14
21.52,12
21.56,11
21.6,10
21.64,8
21.68,10
21.72,9
21.76,14
21.8,14
21.84,16
21.88,13
21.92,15
21.96,12
22,14
22.04,13
22.08,22
22.12,26
22.16,40
22.2,53
22.24,61
22.28,62
22.32,72
22.36,67
22.4,70
22.44,69
22.48,84
22.52,87
22.56,56
22.6,36
22.64,37
22.68,37
22.72,60
22.76,99
22.8,135
22.84,157
22.88,152
22.92,143
22.96,95
23,61
23.04,46
23.08,27
23.12,29
23.16,19
23.2,18
23.24,19
23.28,18
23.32,22
23.36,17
23.4,11
23.44,17
23.48,16
23.52,15
23.56,14
23.6,22
23.64,24
23.68,32
23.72,46
23.76,60
23.8,86
23.84,99
23.88,80
23.92,43
23.96,39
24,22
24.04,19
24.08,20
24.12,15
24.16,20
24.2,18
24.24,21
24.28,15
24.32,15
24.36,17
24.4,17
24.44,16
24.48,22
24.52,20
24.56,22
24.6,25
24.64,27
24.68,37
24.72,36
24.76,48
24.8,52
24.84,55
24.88,37
24.92,35
24.96,25
25,22
25.04,14
25.08,13
25.12,18
25.16,11
25.2,14
25.24,7
25.28,18
25.32,13
25.36,8
25.4,12
25.44,17
25.48,9
25.52,13
25.56,11
25.6,16
25.64,22
25.68,16
25.72,31
25.76,23
25.8,33
25.84,26
25.88,37
25.92,33
25.96,35
26,25
26.04,35
26.08,24
26.12,43
26.16,43
26.2,59
26.24,73
26.28,46
26.32,48
26.36,34
26.4,21
26.44,21
26.48,18
26.52,26
26.56,29
26.6,28
26.64,29
26.68,43
26.72,56
26.76,108
26.8,128
26.84,165
26.88,169
26.92,117
26.96,109
27,58
27.04,41
27.08,58
27.12,48
27.16,72
27.2,88
27.24,82
27.28,94
27.32,106
27.36,120
27.4,141
27.44,130
27.48,94
27.52,86
27.56,67
27.6,84
27.64,86
27.68,107
27.72,144
27.76,157
27.8,165
27.84,136
27.88,110
27.92,75
27.96,50
28,66
28.04,52
28.08,69
28.12,46
28.16,50
28.2,36
28.24,28
28.28,32
28.32,36
28.36,48
28.4,57
28.44,65
28.48,126
28.52,170
28.56,278
28.6,361
28.64,452
28.68,475
28.72,507
28.76,445
28.8,469
28.84,443
28.88,432
28.92,404
28.96,311
29,256
29.04,178
29.08,116
29.12,106
29.16,111
29.2,132
29.24,132
29.28,146
29.32,106
29.36,80
29.4,44
29.44,29
29.48,32
29.52,25
29.56,37
29.6,24
29.64,19
29.68,24
29.72,26
29.76,25
29.8,20
29.84,25
29.88,30
29.92,25
29.96,31
30,34
30.04,60
30.08,77
30.12,118
30.16,171
30.2,187
30.24,188
30.28,151
30.32,98
30.36,67
30.4,57
30.44,49
30.48,61
30.52,51
30.56,55
30.6,31
30.64,35
30.68,25
30.72,14
30.76,23
30.8,19
30.84,29
30.88,23
30.92,20
30.96,18
31,27
31.04,16
31.08,18
31.12,20
31.16,21
31.2,23
31.24,30
31.28,42
31.32,50
31.36,70
31.4,74
31.44,66
31.48,68
31.52,56
31.56,47
31.6,67
31.64,66
31.68,78
31.72,81
31.76,76
31.8,79
31.84,69
31.88,54
31.92,32
31.96,22
32,23
32.04,22
32.08,29
32.12,31
32.16,46
32.2,40
32.24,28
32.28,35
32.32,47
32.36,44
32.4,38
32.44,54
32.48,68
32.52,67
32.56,58
32.6,87
32.64,76
32.68,75
32.72,74
32.76,63
32.8,49
32.84,44
32.88,43
32.92,75
32.96,94
33,117
33.04,135
33.08,100
33.12,93
33.16,89
33.2,75
33.24,56
33.28,40
33.32,32
33.36,30
33.4,20
33.44,24
33.48,16
33.52,22
33.56,23
33.6,21
33.64,19
33.68,21
33.72,21
33.76,18
33.8,18
33.84,14
33.88,14
33.92,17
33.96,15
34,16
34.04,25
34.08,19
34.12,22
34.16,17
34.2,22
34.24,20
34.28,13
34.32,17
34.36,22
34.4,35
34.44,38
34.48,34
34.52,30
34.56,24
34.6,20
34.64,15
34.68,17
34.72,12
34.76,11
34.8,12
34.84,14
34.88,19
34.92,15
34.96,18
35,33
35.04,29
35.08,41
35.12,32
35.16,36
35.2,49
35.24,45
35.28,70
35.32,84
35.36,84
35.4,85
35.44,82
35.48,100
35.52,116
35.56,108
35.6,98
35.64,86
35.68,62
35.72,51
35.76,43
35.8,51
35.84,49
35.88,60
35.92,57
35.96,72
36,77
36.04,73
36.08,74
36.12,73
36.16,81
36.2,92
36.24,109
36.28,110
36.32,80
36.36,81
36.4,76
36.44,81
36.48,75
36.52,95
36.56,85
36.6,85
36.64,54
36.68,42
36.72,31
36.76,24
36.8,20
36.84,19
36.88,20
36.92,24
36.96,23
37,27
37.04,23
37.08,27
37.12,29
37.16,36
37.2,53
37.24,43
37.28,53
37.32,38
37.36,40
37.4,34
37.44,34
37.48,38
37.52,36
37.56,28
37.6,41
37.64,33
37.68,25
37.72,24
37.76,20
37.8,14
37.84,14
37.88,17
37.92,12
37.96,9
38,13
38.04,8
38.08,12
38.12,8
38.16,7
38.2,7
38.24,10
38.28,12
38.32,15
38.36,17
38.4,12
38.44,15
38.48,13
38.52,14
38.56,19
38.6,21
38.64,33
38.68,17
38.72,29
38.76,23
38.8,25
38.84,34
38.88,32
38.92,30
38.96,30
39,32
39.04,40
39.08,47
39.12,30
39.16,31
39.2,39
39.24,15
39.28,48
39.32,28
39.36,30
39.4,31
39.44,30
39.48,23
39.52,24
39.56,16
39.6,22
39.64,17
39.68,18
39.72,20
39.76,27
39.8,17
39.84,19
39.88,10
39.92,15
39.96,10
40,15
40.04,25
40.08,21
40.12,20
40.16,15
40.2,19
40.24,17
40.28,19
40.32,18
40.36,19
40.4,9
40.44,10
40.48,5
40.52,17
40.56,8
40.6,8
40.64,8
40.68,6
40.72,11
40.76,9
40.8,7
40.84,6
40.88,11
40.92,13
40.96,19
41,10
41.04,26
41.08,16
41.12,18
41.16,20
41.2,12
41.24,14
41.28,13
41.32,13
41.36,10
41.4,9
41.44,10
41.48,9
41.52,15
41.56,13
41.6,21
41.64,17
41.68,28
41.72,22
41.76,26
41.8,31
41.84,33
41.88,22
41.92,23
41.96,17
42,17
42.04,26
42.08,28
42.12,36
42.16,41
42.2,59
42.24,54
42.28,46
42.32,41
42.36,45
42.4,40
42.44,39
42.48,38
42.52,31
42.56,32
42.6,28
42.64,30
42.68,26
42.72,29
42.76,28
42.8,35
42.84,18
42.88,18
42.92,19
42.96,13
43,20
43.04,18
43.08,19
43.12,25
43.16,26
43.2,23
43.24,29
43.28,30
43.32,33
43.36,30
43.4,22
43.44,30
43.48,26
43.52,20
43.56,25
43.6,26
43.64,36
43.68,37
43.72,38
43.76,34
43.8,35
43.84,45
43.88,32
43.92,27
43.96,35
44,37
44.04,36
44.08,46
44.12,37
44.16,36
44.2,34
44.24,21
44.28,21
44.32,21
44.36,24
44.4,14
44.44,17
44.48,12
44.52,15
44.56,23
44.6,19
44.64,10
44.68,23
44.72,20
44.76,26
44.8,43
44.84,39
44.88,41
44.92,41
44.96,36
45,35
45.04,30
45.08,21
45.12,19
45.16,15
45.2,18
45.24,21
45.28,15
45.32,20
45.36,28
45.4,29
45.44,35
45.48,55
45.52,50
45.56,50
45.6,52
45.64,48
45.68,37
45.72,40
45.76,45
45.8,50
45.84,64
45.88,82
45.92,90
45.96,93
46,90
46.04,77
46.08,57
46.12,46
46.16,30
46.2,27
46.24,29
46.28,33
46.32,38
46.36,28
46.4,33
46.44,27
46.48,28
46.52,23
46.56,24
46.6,23
46.64,23
46.68,36
46.72,38
46.76,39
46.8,46
46.84,47
46.88,40
46.92,63
46.96,66
47,65
47.04,58
47.08,80
47.12,66
47.16,47
47.2,38
47.24,28
47.28,27
47.32,23
47.36,23
47.4,23
47.44,23
47.48,27
47.52,27
47.56,27
47.6,26
47.64,22
47.68,25
47.72,24
47.76,26
47.8,23
47.84,23
47.88,19
47.92,25
47.96,17
48,24
48.04,16
48.08,27
48.12,29
48.16,24
48.2,26
48.24,31
48.28,29
48.32,29
48.36,39
48.4,28
48.44,39
48.48,64
48.52,56
48.56,68
48.6,76
48.64,65
48.68,73
48.72,60
48.76,61
48.8,52
48.84,59
48.88,52
48.92,45
48.96,22
49,37
49.04,51
49.08,57
49.12,65
49.16,73
49.2,56
49.24,61
49.28,51
49.32,81
49.36,80
49.4,104
49.44,113
49.48,134
49.52,109
49.56,88
49.6,68
49.64,60
49.68,55
49.72,41
49.76,28
49.8,28
49.84,34
49.88,41
49.92,42
49.96,40
50,47
50.04,55
50.08,69
50.12,80
50.16,87
50.2,119
50.24,113
50.28,94
50.32,102
50.36,94
50.4,75
50.44,55
50.48,54
50.52,45
50.56,36
50.6,37
50.64,35
50.68,37
50.72,32
50.76,28
50.8,39
50.84,32
50.88,28
50.92,25
50.96,23
51,22
51.04,17
51.08,19
51.12,19
51.16,14
51.2,16
51.24,20
51.28,12
51.32,11
51.36,17
51.4,18
51.44,13
51.48,13
51.52,15
51.56,16
51.6,20
51.64,14
51.68,21
51.72,17
51.76,18
51.8,22
51.84,19
51.88,28
51.92,33
51.96,49
52,51
52.04,69
52.08,63
52.12,61
52.16,66
52.2,61
52.24,58
52.28,50
52.32,56
52.36,61
52.4,43
52.44,51
52.48,44
52.52,48
52.56,54
52.6,70
52.64,60
52.68,57
52.72,49
52.76,41
52.8,36
52.84,31
52.88,29
52.92,37
52.96,36
53,31
53.04,36
53.08,27
53.12,31
53.16,33
53.2,23
53.24,30
53.28,29
53.32,29
53.36,27
53.4,23
53.44,16
53.48,22
53.52,20
53.56,13
53.6,21
53.64,23
53.68,23
53.72,24
53.76,22
53.8,32
53.84,26
53.88,28
53.92,35
53.96,36
54,38
54.04,34
54.08,29
54.12,32
54.16,36
54.2,33
54.24,43
54.28,37
54.32,39
54.36,34
54.4,38
54.44,31
54.48,30
54.52,18
54.56,24
54.6,15
54.64,17
54.68,20
54.72,20
54.76,26
54.8,20
54.84,27
54.88,25
54.92,29
54.96,24
55,22
55.04,25
55.08,27
55.12,18
55.16,24
55.2,18
55.24,20
55.28,20
55.32,33
55.36,30
55.4,28
55.44,40
55.48,37
55.52,27
55.56,39
55.6,40
55.64,38
55.68,33
55.72,36
55.76,39
55.8,59
55.84,75
55.88,64
55.92,74
55.96,71
56,78
56.04,67
56.08,56
56.12,51
56.16,34
56.2,38
56.24,32
56.28,32
56.32,36
56.36,24
56.4,22
56.44,35
56.48,25
56.52,25
56.56,46
56.6,36
56.64,61
56.68,68
56.72,69
56.76,67
56.8,87
56.84,69
56.88,81
56.92,91
56.96,75
57,66
57.04,62
57.08,72
57.12,54
57.16,59
57.2,46
57.24,43
57.28,42
57.32,46
57.36,33
57.4,36
57.44,28
57.48,38
57.52,27
57.56,25
57.6,24
57.64,19
57.68,20
57.72,17
57.76,20
57.8,31
57.84,15
57.88,21
57.92,22
57.96,20
58,24
58.04,27
58.08,28
58.12,17
58.16,20
58.2,20
58.24,18
58.28,9
58.32,24
58.36,19
58.4,22
58.44,13
58.48,18
58.52,17
58.56,20
58.6,22
58.64,33
58.68,15
58.72,30
58.76,31
58.8,26
58.84,22
58.88,26
58.92,28
58.96,23
59,23
59.04,26
59.08,16
59.12,23
59.16,22
59.2,38
59.24,33
59.28,24
59.32,26
59.36,22
59.4,20
59.44,16
59.48,24
59.52,14
59.56,26
59.6,21
59.64,21
59.68,17
59.72,20
59.76,13
59.8,25
59.84,21
59.88,22
59.92,18
59.96,26
60,20