File: XRD_graph/XRD_data/Li2.5Zn0.8Ga0.2Sn3O8_20241017.txt
2theta,Intensity
10,10.8333
10.04,7.5
10.08,5
10.12,5
10.16,6.66667
10.2,5
10.24,6.66667
10.28,4.16667
10.32,5.83333
10.36,6.66667
10.4,8.33333
10.44,5.83333
10.48,3.33333
10.52,6.66667
10.56,9.16667
10.6,5.83333
10.64,6.66667
10.68,7.5
10.72,8.33333
10.76,5.83333
10.8,9.16667
10.84,8.33333
10.88,5.83333
10.92,3.33333
10.96,8.33333
11,5
11.04,5
11.08,8.33333
11.12,5.83333
11.16,5
11.2,8.33333
11.24,8.33333
11.28,6.66667
11.32,7.5
11.36,8.33333
11.4,5.83333
11.44,8.33333
11.48,5.83333
11.52,5.83333
11.56,10.8333
11.6,7.5
11.64,6.66667
11.68,8.33333
11.72,7.5
11.76,6.66667
11.8,6.66667
11.84,10.8333
11.88,5.83333
11.92,5.83333
11.96,5
12,7.5
12.04,5.83333
12.08,9.16667
12.12,7.5
12.16,6.66667
12.2,8.33333
12.24,9.16667
12.28,8.33333
12.32,10.8333
12.36,10
12.4,5.83333
12.44,9.16667
12.48,12.5
12.52,16.6667
12.56,6.66667
12.6,6.66667
12.64,9.16667
12.68,7.5
12.72,7.5
12.76,9.16667
12.8,9.16667
12.84,11.6667
12.88,6.66667
12.92,10
12.96,9.16667
13,15.8333
13.04,17.5
13.08,29.1667
13.12,30
13.16,33.3333
13.2,28.3333
13.24,21.6667
13.28,21.6667
13.32,8.33333
13.36,7.5
13.4,7.5
13.44,12.5
13.48,5.83333
13.52,8.33333
13.56,10
13.6,10
13.64,11.6667
13.68,9.16667
13.72,10.8333
13.76,8.33333
13.8,6.66667
13.84,5.83333
13.88,6.66667
13.92,9.16667
13.96,5
14,7.5
14.04,5.83333
14.08,8.33333
14.12,10.8333
14.16,10.8333
14.2,5.83333
14.24,7.5
14.28,6.66667
14.32,9.16667
14.36,5.83333
14.4,11.6667
14.44,7.5
14.48,10
14.52,7.5
14.56,5
14.6,5
14.64,8.33333
14.68,8.33333
14.72,9.16667
14.76,7.5
14.8,10.8333
14.84,13.3333
14.88,5.83333
14.92,7.5
14.96,4.16667
15,11.6667
15.04,4.16667
15.08,7.5
15.12,5.83333
15.16,5
15.2,7.5
15.24,9.16667
15.28,5.83333
15.32,6.66667
15.36,8.33333
15.4,10
15.44,11.6667
15.48,8.33333
15.52,6.66667
15.56,10
15.6,4.16667
15.64,13.3333
15.68,8.33333
15.72,5
15.76,9.16667
15.8,9.16667
15.84,10
15.88,12.5
15.92,9.16667
15.96,10
16,10
16.04,10
16.08,11.6667
16.12,15
16.16,12.5
16.2,11.6667
16.24,11.6667
16.28,10.8333
16.32,11.6667
16.36,15.8333
16.4,9.16667
16.44,15.8333
16.48,12.5
16.52,12.5
16.56,12.5
16.6,25
16.64,20
16.68,27.5
16.72,47.5
16.76,54.1667
16.8,75.8333
16.84,65
16.88,38.3333
16.92,30
16.96,20
17,15.8333
17.04,14.1667
17.08,19.1667
17.12,19.1667
17.16,20
17.2,27.5
17.24,16.6667
17.28,15
17.32,20
17.36,18.3333
17.4,20
17.44,23.3333
17.48,21.6667
17.52,21.6667
17.56,28.3333
17.6,28.3333
17.64,30.8333
17.68,36.6667
17.72,49.1667
17.76,61.6667
17.8,83.3333
17.84,106.667
17.88,130.833
17.92,108.333
17.96,85.8333
18,40.8333
18.04,23.3333
18.08,22.5
18.12,21.6667
18.16,20
18.2,22.5
18.24,12.5
18.28,17.5
18.32,14.1667
18.36,15
18.4,13.3333
18.44,18.3333
18.48,15
18.52,15.8333
18.56,19.1667
18.6,16.6667
18.64,16.6667
18.68,17.5
18.72,20.8333
18.76,21.6667
18.8,34.1667
18.84,40
18.88,55
18.92,95.8333
18.96,138.333
19,210
19.04,284.167
19.08,306.667
19.12,233.333
19.16,141.667
19.2,69.1667
19.24,57.5
19.28,73.3333
19.32,97.5
19.36,110
19.4,152.5
19.44,182.5
19.48,155.833
19.52,104.167
19.56,68.3333
19.6,33.3333
19.64,25
19.68,18.3333
19.72,16.6667
19.76,28.3333
19.8,15
19.84,17.5
19.88,12.5
19.92,15
19.96,19.1667
20,15
20.04,21.6667
20.08,15
20.12,13.3333
20.16,12.5
20.2,20.8333
20.24,22.5
20.28,32.5
20.32,29.1667
20.36,30.8333
20.4,41.6667
20.44,40
20.48,27.5
20.52,18.3333
20.56,11.6667
20.6,11.6667
20.64,11.6667
20.68,9.16667
20.72,13.3333
20.76,10.8333
20.8,9.16667
20.84,10
20.88,13.3333
20.92,15
20.96,13.3333
21,13.3333
21.04,11.6667
21.08,20
21.12,22.5
21.16,26.6667
21.2,23.3333
21.24,49.1667
21.28,77.5
21.32,105
21.36,155.833
21.4,210
21.44,243.333
21.48,218.333
21.52,141.667
21.56,70.8333
21.6,40
21.64,24.1667
21.68,25.8333
21.72,25
21.76,17.5
21.8,17.5
21.84,19.1667
21.88,11.6667
21.92,12.5
21.96,13.3333
22,10.8333
22.04,6.66667
22.08,15.8333
22.12,12.5
22.16,13.3333
22.2,15
22.24,7.5
22.28,10
22.32,10.8333
22.36,11.6667
22.4,10
22.44,11.6667
22.48,15.8333
22.52,9.16667
22.56,10.8333
22.6,9.16667
22.64,8.33333
22.68,8.33333
22.72,11.6667
22.76,6.66667
22.8,10
22.84,9.16667
22.88,7.5
22.92,5.83333
22.96,10
23,7.5
23.04,9.16667
23.08,7.5
23.12,10
23.16,10.8333
23.2,8.33333
23.24,6.66667
23.28,13.3333
23.32,10.8333
23.36,11.6667
23.4,6.66667
23.44,5
23.48,9.16667
23.52,7.5
23.56,12.5
23.6,11.6667
23.64,15
23.68,10
23.72,9.16667
23.76,9.16667
23.8,6.66667
23.84,12.5
23.88,14.1667
23.92,6.66667
23.96,10
24,10.8333
24.04,15
24.08,13.3333
24.12,11.6667
24.16,10
24.2,15
24.24,12.5
24.28,20
24.32,24.1667
24.36,21.6667
24.4,30.8333
24.44,37.5
24.48,57.5
24.52,83.3333
24.56,138.333
24.6,234.167
24.64,337.5
24.68,402.5
24.72,365.833
24.76,236.667
24.8,145
24.84,60
24.88,40.8333
24.92,35
24.96,22.5
25,26.6667
25.04,14.1667
25.08,14.1667
25.12,17.5
25.16,21.6667
25.2,11.6667
25.24,10
25.28,15
25.32,10
25.36,14.1667
25.4,7.5
25.44,10
25.48,10
25.52,10.8333
25.56,5.83333
25.6,17.5
25.64,9.16667
25.68,15
25.72,18.3333
25.76,34.1667
25.8,36.6667
25.84,50.8333
25.88,42.5
25.92,38.3333
25.96,20.8333
26,15
26.04,9.16667
26.08,17.5
26.12,13.3333
26.16,16.6667
26.2,18.3333
26.24,10.8333
26.28,19.1667
26.32,21.6667
26.36,30
26.4,37.5
26.44,45.8333
26.48,55
26.52,94.1667
26.56,125.833
26.6,127.5
26.64,129.167
26.68,66.6667
26.72,43.3333
26.76,24.1667
26.8,20.8333
26.84,18.3333
26.88,15.8333
26.92,14.1667
26.96,17.5
27,7.5
27.04,14.1667
27.08,11.6667
27.12,10
27.16,10.8333
27.2,14.1667
27.24,25
27.28,18.3333
27.32,45
27.36,74.1667
27.4,63.3333
27.44,80.8333
27.48,60
27.52,34.1667
27.56,25.8333
27.6,15.8333
27.64,10
27.68,20.8333
27.72,7.5
27.76,10.8333
27.8,11.6667
27.84,9.16667
27.88,10.8333
27.92,6.66667
27.96,15
28,13.3333
28.04,15
28.08,9.16667
28.12,8.33333
28.16,6.66667
28.2,13.3333
28.24,9.16667
28.28,12.5
28.32,8.33333
28.36,5
28.4,10
28.44,10.8333
28.48,6.66667
28.52,12.5
28.56,12.5
28.6,11.6667
28.64,15
28.68,10.8333
28.72,18.3333
28.76,10.8333
28.8,15.8333
28.84,19.1667
28.88,13.3333
28.92,13.3333
28.96,15.8333
29,16.6667
29.04,15.8333
29.08,9.16667
29.12,12.5
29.16,15
29.2,10
29.24,35
29.28,34.1667
29.32,56.6667
29.36,90.8333
29.4,100
29.44,108.333
29.48,74.1667
29.52,41.6667
29.56,23.3333
29.6,15.8333
29.64,10.8333
29.68,11.6667
29.72,7.5
29.76,14.1667
29.8,10
29.84,10.8333
29.88,12.5
29.92,11.6667
29.96,7.5
30,12.5
30.04,15
30.08,10
30.12,10
30.16,14.1667
30.2,10.8333
30.24,9.16667
30.28,10
30.32,13.3333
30.36,9.16667
30.4,16.6667
30.44,11.6667
30.48,8.33333
30.52,11.6667
30.56,9.16667
30.6,9.16667
30.64,10.8333
30.68,11.6667
30.72,8.33333
30.76,10.8333
30.8,12.5
30.84,7.5
30.88,7.5
30.92,9.16667
30.96,5.83333
31,9.16667
31.04,11.6667
31.08,6.66667
31.12,10.8333
31.16,10
31.2,6.66667
31.24,13.3333
31.28,5.83333
31.32,10.8333
31.36,11.6667
31.4,12.5
31.44,7.5
31.48,15
31.52,25.8333
31.56,35.8333
31.6,52.5
31.64,74.1667
31.68,79.1667
31.72,63.3333
31.76,57.5
31.8,58.3333
31.84,66.6667
31.88,105
31.92,170
31.96,271.667
32,402.5
32.04,439.167
32.08,426.667
32.12,280
32.16,174.167
32.2,85.8333
32.24,43.3333
32.28,37.5
32.32,28.3333
32.36,27.5
32.4,20.8333
32.44,20.8333
32.48,15.8333
32.52,11.6667
32.56,10
32.6,10
32.64,14.1667
32.68,15
32.72,10
32.76,10
32.8,11.6667
32.84,10.8333
32.88,13.3333
32.92,10.8333
32.96,12.5
33,7.5
33.04,11.6667
33.08,10
33.12,14.1667
33.16,10
33.2,9.16667
33.24,10.8333
33.28,12.5
33.32,14.1667
33.36,23.3333
33.4,21.6667
33.44,35.8333
33.48,50.8333
33.52,55
33.56,56.6667
33.6,54.1667
33.64,50.8333
33.68,34.1667
33.72,25.8333
33.76,22.5
33.8,20.8333
33.84,21.6667
33.88,27.5
33.92,35
33.96,45.8333
34,88.3333
34.04,130
34.08,189.167
34.12,190
34.16,144.167
34.2,100
34.24,79.1667
34.28,63.3333
34.32,44.1667
34.36,51.6667
34.4,53.3333
34.44,65
34.48,71.6667
34.52,126.667
34.56,214.167
34.6,376.667
34.64,574.167
34.68,629.167
34.72,524.167
34.76,384.167
34.8,249.167
34.84,120
34.88,61.6667
34.92,60
34.96,42.5
35,49.1667
35.04,43.3333
35.08,42.5
35.12,58.3333
35.16,72.5
35.2,133.333
35.24,241.667
35.28,349.167
35.32,455.833
35.36,436.667
35.4,326.667
35.44,230.833
35.48,124.167
35.52,65.8333
35.56,40
35.6,37.5
35.64,30.8333
35.68,25.8333
35.72,22.5
35.76,21.6667
35.8,21.6667
35.84,15.8333
35.88,22.5
35.92,26.6667
35.96,13.3333
36,22.5
36.04,24.1667
36.08,15.8333
36.12,19.1667
36.16,19.1667
36.2,26.6667
36.24,53.3333
36.28,72.5
36.32,87.5
36.36,80.8333
36.4,75.8333
36.44,63.3333
36.48,35.8333
36.52,14.1667
36.56,15.8333
36.6,10
36.64,17.5
36.68,14.1667
36.72,15.8333
36.76,13.3333
36.8,15.8333
36.84,9.16667
36.88,12.5
36.92,13.3333
36.96,8.33333
37,13.3333
37.04,8.33333
37.08,8.33333
37.12,7.5
37.16,8.33333
37.2,5.83333
37.24,7.5
37.28,9.16667
37.32,5.83333
37.36,10
37.4,8.33333
37.44,8.33333
37.48,7.5
37.52,6.66667
37.56,10
37.6,10
37.64,17.5
37.68,19.1667
37.72,23.3333
37.76,30
37.8,32.5
37.84,25.8333
37.88,29.1667
37.92,15.8333
37.96,14.1667
38,5.83333
38.04,6.66667
38.08,9.16667
38.12,10
38.16,5
38.2,6.66667
38.24,7.5
38.28,6.66667
38.32,6.66667
38.36,8.33333
38.4,7.5
38.44,5.83333
38.48,9.16667
38.52,10.8333
38.56,14.1667
38.6,15
38.64,23.3333
38.68,29.1667
38.72,62.5
38.76,93.3333
38.8,95
38.84,110.833
38.88,80
38.92,50.8333
38.96,32.5
39,20
39.04,10.8333
39.08,14.1667
39.12,10.8333
39.16,7.5
39.2,5
39.24,6.66667
39.28,5.83333
39.32,6.66667
39.36,10
39.4,10.8333
39.44,9.16667
39.48,15
39.52,26.6667
39.56,25.8333
39.6,28.3333
39.64,30
39.68,20
39.72,16.6667
39.76,10.8333
39.8,10
39.84,4.16667
39.88,5.83333
39.92,6.66667
39.96,7.5
40,8.33333
40.04,3.33333
40.08,16.6667
40.12,15.8333
40.16,17.5
40.2,3.33333
40.24,13.3333
40.28,5
40.32,10.8333
40.36,5.83333
40.4,8.33333
40.44,11.6667
40.48,10.8333
40.52,14.1667
40.56,21.6667
40.6,25
40.64,36.6667
40.68,48.3333
40.72,33.3333
40.76,29.1667
40.8,25.8333
40.84,13.3333
40.88,12.5
40.92,11.6667
40.96,10
41,5.83333
41.04,7.5
41.08,10
41.12,7.5
41.16,9.16667
41.2,6.66667
41.24,5
41.28,8.33333
41.32,10
41.36,14.1667
41.4,11.6667
41.44,17.5
41.48,32.5
41.52,32.5
41.56,41.6667
41.6,43.3333
41.64,30.8333
41.68,25
41.72,36.6667
41.76,21.6667
41.8,23.3333
41.84,18.3333
41.88,25.8333
41.92,15
41.96,19.1667
42,14.1667
42.04,9.16667
42.08,10
42.12,8.33333
42.16,8.33333
42.2,5.83333
42.24,5.83333
42.28,10.8333
42.32,7.5
42.36,6.66667
42.4,5.83333
42.44,8.33333
42.48,7.5
42.52,4.16667
42.56,5
42.6,5
42.64,4.16667
42.68,4.16667
42.72,9.16667
42.76,5.83333
42.8,2.5
42.84,6.66667
42.88,5
42.92,5.83333
42.96,6.66667
43,6.66667
43.04,5
43.08,8.33333
43.12,4.16667
43.16,5
43.2,5.83333
43.24,5
43.28,8.33333
43.32,10
43.36,8.33333
43.4,5
43.44,9.16667
43.48,7.5
43.52,10.8333
43.56,9.16667
43.6,8.33333
43.64,12.5
43.68,20.8333
43.72,20
43.76,29.1667
43.8,28.3333
43.84,32.5
43.88,35.8333
43.92,39.1667
43.96,70
44,112.5
44.04,164.167
44.08,175.833
44.12,166.667
44.16,131.667
44.2,105.833
44.24,70.8333
44.28,30
44.32,20.8333
44.36,17.5
44.4,16.6667
44.44,9.16667
44.48,10
44.52,8.33333
44.56,8.33333
44.6,6.66667
44.64,7.5
44.68,5.83333
44.72,7.5
44.76,8.33333
44.8,8.33333
44.84,5
44.88,7.5
44.92,5.83333
44.96,5
45,8.33333
45.04,16.6667
45.08,18.3333
45.12,19.1667
45.16,22.5
45.2,25
45.24,18.3333
45.28,23.3333
45.32,15.8333
45.36,14.1667
45.4,11.6667
45.44,10.8333
45.48,9.16667
45.52,13.3333
45.56,10.8333
45.6,13.3333
45.64,15.8333
45.68,15.8333
45.72,15
45.76,17.5
45.8,12.5
45.84,13.3333
45.88,10
45.92,14.1667
45.96,7.5
46,7.5
46.04,7.5
46.08,5
46.12,8.33333
46.16,5
46.2,4.16667
46.24,5.83333
46.28,5.83333
46.32,5
46.36,5.83333
46.4,6.66667
46.44,8.33333
46.48,10
46.52,11.6667
46.56,17.5
46.6,28.3333
46.64,30
46.68,31.6667
46.72,25
46.76,19.1667
46.8,17.5
46.84,14.1667
46.88,6.66667
46.92,6.66667
46.96,10
47,5.83333
47.04,7.5
47.08,9.16667
47.12,9.16667
47.16,9.16667
47.2,10
47.24,5
47.28,5
47.32,6.66667
47.36,12.5
47.4,9.16667
47.44,11.6667
47.48,17.5
47.52,8.33333
47.56,8.33333
47.6,11.6667
47.64,6.66667
47.68,5
47.72,5.83333
47.76,4.16667
47.8,4.16667
47.84,10.8333
47.88,7.5
47.92,5
47.96,6.66667
48,6.66667
48.04,5
48.08,1.66667
48.12,9.16667
48.16,3.33333
48.2,6.66667
48.24,6.66667
48.28,8.33333
48.32,5
48.36,10
48.4,5
48.44,9.16667
48.48,9.16667
48.52,12.5
48.56,15.8333
48.6,23.3333
48.64,28.3333
48.68,25
48.72,25.8333
48.76,13.3333
48.8,10
48.84,13.3333
48.88,13.3333
48.92,10.8333
48.96,6.66667
49,11.6667
49.04,9.16667
49.08,17.5
49.12,13.3333
49.16,25.8333
49.2,41.6667
49.24,54.1667
49.28,43.3333
49.32,52.5
49.36,75.8333
49.4,91.6667
49.44,120
49.48,130.833
49.52,100
49.56,80
49.6,57.5
49.64,43.3333
49.68,38.3333
49.72,15
49.76,16.6667
49.8,9.16667
49.84,10.8333
49.88,9.16667
49.92,8.33333
49.96,15.8333
50,9.16667
50.04,16.6667
50.08,14.1667
50.12,18.3333
50.16,10
50.2,16.6667
50.24,22.5
50.28,30
50.32,32.5
50.36,20.8333
50.4,17.5
50.44,33.3333
50.48,20.8333
50.52,24.1667
50.56,25
50.6,33.3333
50.64,71.6667
50.68,100.833
50.72,120
50.76,115.833
50.8,95
50.84,85
50.88,72.5
50.92,54.1667
50.96,41.6667
51,37.5
51.04,29.1667
51.08,18.3333
51.12,20
51.16,16.6667
51.2,15.8333
51.24,13.3333
51.28,9.16667
51.32,8.33333
51.36,8.33333
51.4,6.66667
51.44,7.5
51.48,5.83333
51.52,5.83333
51.56,6.66667
51.6,8.33333
51.64,8.33333
51.68,5.83333
51.72,7.5
51.76,6.66667
51.8,7.5
51.84,7.5
51.88,4.16667
51.92,5
51.96,5
52,10.8333
52.04,8.33333
52.08,7.5
52.12,9.16667
52.16,15.8333
52.2,18.3333
52.24,20.8333
52.28,25.8333
52.32,17.5
52.36,18.3333
52.4,15.8333
52.44,12.5
52.48,5.83333
52.52,8.33333
52.56,6.66667
52.6,5.83333
52.64,4.16667
52.68,5
52.72,2.5
52.76,5
52.8,7.5
52.84,7.5
52.88,5.83333
52.92,6.66667
52.96,9.16667
53,7.5
53.04,6.66667
53.08,9.16667
53.12,12.5
53.16,15
53.2,15.8333
53.24,21.6667
53.28,25.8333
53.32,24.1667
53.36,20
53.4,25.8333
53.44,26.6667
53.48,22.5
53.52,20.8333
53.56,20.8333
53.6,22.5
53.64,30.8333
53.68,38.3333
53.72,34.1667
53.76,42.5
53.8,69.1667
53.84,127.5
53.88,169.167
53.92,201.667
53.96,166.667
54,132.5
54.04,131.667
54.08,135
54.12,98.3333
54.16,66.6667
54.2,49.1667
54.24,36.6667
54.28,35
54.32,33.3333
54.36,21.6667
54.4,14.1667
54.44,10
54.48,9.16667
54.52,15.8333
54.56,10.8333
54.6,10.8333
54.64,10.8333
54.68,11.6667
54.72,12.5
54.76,20
54.8,20
54.84,26.6667
54.88,22.5
54.92,15
54.96,15
55,18.3333
55.04,19.1667
55.08,13.3333
55.12,13.3333
55.16,11.6667
55.2,10
55.24,8.33333
55.28,13.3333
55.32,17.5
55.36,14.1667
55.4,18.3333
55.44,14.1667
55.48,20
55.52,29.1667
55.56,31.6667
55.6,54.1667
55.64,94.1667
55.68,125.833
55.72,118.333
55.76,109.167
55.8,76.6667
55.84,100
55.88,71.6667
55.92,48.3333
55.96,38.3333
56,30
56.04,20.8333
56.08,19.1667
56.12,13.3333
56.16,5.83333
56.2,8.33333
56.24,10.8333
56.28,11.6667
56.32,14.1667
56.36,11.6667
56.4,10.8333
56.44,9.16667
56.48,12.5
56.52,16.6667
56.56,10.8333
56.6,14.1667
56.64,24.1667
56.68,24.1667
56.72,33.3333
56.76,26.6667
56.8,18.3333
56.84,12.5
56.88,15
56.92,12.5
56.96,11.6667
57,16.6667
57.04,10.8333
57.08,13.3333
57.12,15.8333
57.16,10.8333
57.2,16.6667
57.24,8.33333
57.28,11.6667
57.32,10
57.36,6.66667
57.4,12.5
57.44,5.83333
57.48,4.16667
57.52,10.8333
57.56,8.33333
57.6,7.5
57.64,8.33333
57.68,10
57.72,5
57.76,6.66667
57.8,17.5
57.84,21.6667
57.88,20.8333
57.92,16.6667
57.96,24.1667
58,23.3333
58.04,27.5
58.08,24.1667
58.12,30.8333
58.16,25.8333
58.2,20
58.24,37.5
58.28,51.6667
58.32,72.5
58.36,137.5
58.4,254.167
58.44,300.833
58.48,301.667
58.52,211.667
58.56,175.833
58.6,192.5
58.64,160.833
58.68,100.833
58.72,54.1667
58.76,40.8333
58.8,25
58.84,20
58.88,21.6667
58.92,15
58.96,19.1667
59,13.3333
59.04,9.16667
59.08,15.8333
59.12,9.16667
59.16,7.5
59.2,10
59.24,11.6667
59.28,10
59.32,11.6667
59.36,14.1667
59.4,9.16667
59.44,7.5
59.48,10
59.52,18.3333
59.56,15.8333
59.6,13.3333
59.64,16.6667
59.68,16.6667
59.72,19.1667
59.76,19.1667
59.8,13.3333
59.84,14.1667
59.88,15.8333
59.92,8.33333
59.96,15
60,13.3333