File: XRD_graph/XRD_data/Li2.5ZnSn3O8_20241112.txt
2theta,Intensity
10,4
10.04,6.66667
10.08,8
10.12,6.66667
10.16,6.66667
10.2,4.66667
10.24,7.33333
10.28,3.33333
10.32,7.33333
10.36,4
10.4,6.66667
10.44,4.66667
10.48,5.33333
10.52,5.33333
10.56,6.66667
10.6,7.33333
10.64,9.33333
10.68,8.66667
10.72,6
10.76,6.66667
10.8,8.66667
10.84,8
10.88,8
10.92,7.33333
10.96,6.66667
11,8
11.04,6.66667
11.08,8
11.12,6
11.16,5.33333
11.2,6
11.24,9.33333
11.28,6.66667
11.32,5.33333
11.36,7.33333
11.4,8
11.44,6.66667
11.48,8
11.52,4.66667
11.56,5.33333
11.6,6.66667
11.64,6.66667
11.68,7.33333
11.72,6.66667
11.76,8.66667
11.8,5.33333
11.84,6
11.88,8
11.92,6.66667
11.96,7.33333
12,4
12.04,8.66667
12.08,8.66667
12.12,8
12.16,7.33333
12.2,12.6667
12.24,6
12.28,12.6667
12.32,8
12.36,8
12.4,8
12.44,10.6667
12.48,8.66667
12.52,8
12.56,7.33333
12.6,11.3333
12.64,11.3333
12.68,10
12.72,8.66667
12.76,12
12.8,11.3333
12.84,8.66667
12.88,9.33333
12.92,10.6667
12.96,13.3333
13,12
13.04,19.3333
13.08,25.3333
13.12,29.3333
13.16,22
13.2,20
13.24,12.6667
13.28,8
13.32,8.66667
13.36,8
13.4,10.6667
13.44,8.66667
13.48,12
13.52,7.33333
13.56,6.66667
13.6,7.33333
13.64,10
13.68,7.33333
13.72,6.66667
13.76,5.33333
13.8,8.66667
13.84,6.66667
13.88,8
13.92,7.33333
13.96,7.33333
14,7.33333
14.04,5.33333
14.08,6.66667
14.12,4.66667
14.16,4
14.2,7.33333
14.24,5.33333
14.28,6
14.32,8.66667
14.36,8
14.4,5.33333
14.44,8
14.48,8.66667
14.52,6
14.56,6.66667
14.6,4
14.64,6.66667
14.68,3.33333
14.72,6
14.76,4.66667
14.8,6
14.84,10
14.88,4.66667
14.92,5.33333
14.96,6.66667
15,7.33333
15.04,10
15.08,8
15.12,7.33333
15.16,10
15.2,12
15.24,6.66667
15.28,5.33333
15.32,9.33333
15.36,9.33333
15.4,10
15.44,9.33333
15.48,6.66667
15.52,11.3333
15.56,5.33333
15.6,8.66667
15.64,11.3333
15.68,8.66667
15.72,10
15.76,8.66667
15.8,11.3333
15.84,10
15.88,8.66667
15.92,13.3333
15.96,10
16,14
16.04,11.3333
16.08,10.6667
16.12,10
16.16,12
16.2,12
16.24,10
16.28,13.3333
16.32,13.3333
16.36,15.3333
16.4,15.3333
16.44,12.6667
16.48,19.3333
16.52,19.3333
16.56,22
16.6,18
16.64,40
16.68,44
16.72,62.6667
16.76,66
16.8,68.6667
16.84,46
16.88,18.6667
16.92,17.3333
16.96,13.3333
17,13.3333
17.04,16.6667
17.08,15.3333
17.12,15.3333
17.16,18.6667
17.2,22
17.24,18
17.28,24
17.32,19.3333
17.36,22.6667
17.4,22
17.44,14
17.48,25.3333
17.52,21.3333
17.56,22
17.6,28.6667
17.64,34.6667
17.68,43.3333
17.72,65.3333
17.76,96
17.8,122
17.84,120.667
17.88,124.667
17.92,88
17.96,45.3333
18,33.3333
18.04,20
18.08,20.6667
18.12,18.6667
18.16,14
18.2,14
18.24,14.6667
18.28,11.3333
18.32,10
18.36,12
18.4,14.6667
18.44,12.6667
18.48,11.3333
18.52,15.3333
18.56,14
18.6,18.6667
18.64,16
18.68,15.3333
18.72,19.3333
18.76,26
18.8,37.3333
18.84,46.6667
18.88,82.6667
18.92,124
18.96,160
19,190
19.04,215.333
19.08,163.333
19.12,89.3333
19.16,55.3333
19.2,50
19.24,64
19.28,81.3333
19.32,100.667
19.36,146.667
19.4,148.667
19.44,126.667
19.48,80.6667
19.52,39.3333
19.56,19.3333
19.6,21.3333
19.64,20.6667
19.68,20.6667
19.72,15.3333
19.76,14
19.8,16
19.84,16.6667
19.88,14.6667
19.92,12
19.96,12
20,12
20.04,12.6667
20.08,13.3333
20.12,12
20.16,12.6667
20.2,16
20.24,25.3333
20.28,24.6667
20.32,30
20.36,32.6667
20.4,29.3333
20.44,24.6667
20.48,14
20.52,10
20.56,10.6667
20.6,12
20.64,11.3333
20.68,12.6667
20.72,9.33333
20.76,9.33333
20.8,14.6667
20.84,9.33333
20.88,16.6667
20.92,13.3333
20.96,15.3333
21,13.3333
21.04,14
21.08,18
21.12,20.6667
21.16,32
21.2,48
21.24,65.3333
21.28,121.333
21.32,154.667
21.36,200.667
21.4,187.333
21.44,168.667
21.48,104
21.52,56
21.56,21.3333
21.6,21.3333
21.64,14.6667
21.68,12
21.72,16.6667
21.76,15.3333
21.8,14
21.84,12.6667
21.88,14.6667
21.92,13.3333
21.96,8
22,9.33333
22.04,13.3333
22.08,13.3333
22.12,14
22.16,10.6667
22.2,9.33333
22.24,9.33333
22.28,18.6667
22.32,12
22.36,6
22.4,9.33333
22.44,10.6667
22.48,9.33333
22.52,9.33333
22.56,11.3333
22.6,7.33333
22.64,9.33333
22.68,10
22.72,12
22.76,6.66667
22.8,12.6667
22.84,9.33333
22.88,6.66667
22.92,9.33333
22.96,5.33333
23,10.6667
23.04,9.33333
23.08,10
23.12,10
23.16,11.3333
23.2,9.33333
23.24,9.33333
23.28,6
23.32,10.6667
23.36,8
23.4,9.33333
23.44,11.3333
23.48,8
23.52,9.33333
23.56,11.3333
23.6,5.33333
23.64,8.66667
23.68,10.6667
23.72,6.66667
23.76,9.33333
23.8,11.3333
23.84,9.33333
23.88,11.3333
23.92,10.6667
23.96,6.66667
24,8.66667
24.04,10
24.08,13.3333
24.12,12.6667
24.16,13.3333
24.2,13.3333
24.24,17.3333
24.28,18
24.32,28.6667
24.36,31.3333
24.4,34
24.44,58
24.48,94
24.52,183.333
24.56,262.667
24.6,335.333
24.64,343.333
24.68,274.667
24.72,186
24.76,100.667
24.8,44
24.84,30.6667
24.88,31.3333
24.92,25.3333
24.96,19.3333
25,16.6667
25.04,12
25.08,16
25.12,14
25.16,9.33333
25.2,14.6667
25.24,15.3333
25.28,9.33333
25.32,16
25.36,10.6667
25.4,10
25.44,10.6667
25.48,13.3333
25.52,10.6667
25.56,15.3333
25.6,21.3333
25.64,16
25.68,30
25.72,36.6667
25.76,48.6667
25.8,52.6667
25.84,43.3333
25.88,30.6667
25.92,17.3333
25.96,15.3333
26,10.6667
26.04,10
26.08,10.6667
26.12,13.3333
26.16,13.3333
26.2,20
26.24,14
26.28,21.3333
26.32,23.3333
26.36,26
26.4,45.3333
26.44,86.6667
26.48,110.667
26.52,140.667
26.56,134
26.6,101.333
26.64,59.3333
26.68,34.6667
26.72,19.3333
26.76,12.6667
26.8,14.6667
26.84,6.66667
26.88,10.6667
26.92,10
26.96,13.3333
27,14.6667
27.04,15.3333
27.08,16
27.12,17.3333
27.16,19.3333
27.2,21.3333
27.24,39.3333
27.28,68.6667
27.32,70
27.36,71.3333
27.4,50.6667
27.44,34.6667
27.48,24
27.52,21.3333
27.56,17.3333
27.6,13.3333
27.64,12.6667
27.68,8.66667
27.72,9.33333
27.76,14.6667
27.8,9.33333
27.84,11.3333
27.88,4.66667
27.92,9.33333
27.96,8.66667
28,10
28.04,6.66667
28.08,12
28.12,10.6667
28.16,14
28.2,7.33333
28.24,11.3333
28.28,9.33333
28.32,11.3333
28.36,11.3333
28.4,9.33333
28.44,10.6667
28.48,8.66667
28.52,12
28.56,14
28.6,14.6667
28.64,14
28.68,15.3333
28.72,24
28.76,22.6667
28.8,20
28.84,16
28.88,10
28.92,12
28.96,12.6667
29,15.3333
29.04,10
29.08,14.6667
29.12,18.6667
29.16,24
29.2,38
29.24,56
29.28,78
29.32,113.333
29.36,99.3333
29.4,53.3333
29.44,47.3333
29.48,24
29.52,16.6667
29.56,12
29.6,12
29.64,13.3333
29.68,10.6667
29.72,8
29.76,14
29.8,10.6667
29.84,8.66667
29.88,6.66667
29.92,8.66667
29.96,6
30,9.33333
30.04,8
30.08,10.6667
30.12,7.33333
30.16,8.66667
30.2,14
30.24,10
30.28,8.66667
30.32,10
30.36,12
30.4,10.6667
30.44,6.66667
30.48,5.33333
30.52,10
30.56,8.66667
30.6,8.66667
30.64,9.33333
30.68,9.33333
30.72,9.33333
30.76,9.33333
30.8,8
30.84,5.33333
30.88,8
30.92,6.66667
30.96,12.6667
31,10
31.04,11.3333
31.08,8
31.12,10
31.16,4.66667
31.2,10
31.24,6.66667
31.28,11.3333
31.32,14.6667
31.36,18
31.4,16.6667
31.44,20
31.48,38
31.52,40
31.56,57.3333
31.6,62
31.64,64.6667
31.68,50
31.72,40
31.76,52
31.8,74
31.84,122
31.88,211.333
31.92,327.333
31.96,425.333
32,408
32.04,306
32.08,208
32.12,118
32.16,50.6667
32.2,31.3333
32.24,24.6667
32.28,28
32.32,18.6667
32.36,15.3333
32.4,15.3333
32.44,14.6667
32.48,10.6667
32.52,12.6667
32.56,11.3333
32.6,12.6667
32.64,12.6667
32.68,10
32.72,8
32.76,7.33333
32.8,15.3333
32.84,7.33333
32.88,16
32.92,12
32.96,11.3333
33,8
33.04,9.33333
33.08,10
33.12,10.6667
33.16,11.3333
33.2,8.66667
33.24,9.33333
33.28,15.3333
33.32,21.3333
33.36,22
33.4,26.6667
33.44,49.3333
33.48,64.6667
33.52,56
33.56,50.6667
33.6,39.3333
33.64,26.6667
33.68,25.3333
33.72,16
33.76,15.3333
33.8,27.3333
33.84,35.3333
33.88,53.3333
33.92,92
33.96,132
34,183.333
34.04,180.667
34.08,144.667
34.12,100
34.16,74.6667
34.2,62.6667
34.24,52.6667
34.28,56.6667
34.32,52
34.36,52
34.4,82.6667
34.44,116
34.48,196.667
34.52,366
34.56,541.333
34.6,540.667
34.64,520.667
34.68,366
34.72,235.333
34.76,120
34.8,59.3333
34.84,52.6667
34.88,38
34.92,38.6667
34.96,38
35,39.3333
35.04,52
35.08,78.6667
35.12,141.333
35.16,243.333
35.2,356
35.24,408
35.28,383.333
35.32,286
35.36,191.333
35.4,111.333
35.44,52.6667
35.48,36.6667
35.52,25.3333
35.56,23.3333
35.6,22
35.64,18
35.68,20.6667
35.72,16
35.76,16.6667
35.8,25.3333
35.84,23.3333
35.88,24.6667
35.92,22.6667
35.96,15.3333
36,20.6667
36.04,16
36.08,15.3333
36.12,22.6667
36.16,30
36.2,51.3333
36.24,72.6667
36.28,85.3333
36.32,78.6667
36.36,52
36.4,34
36.44,22
36.48,12.6667
36.52,13.3333
36.56,15.3333
36.6,15.3333
36.64,18.6667
36.68,13.3333
36.72,12.6667
36.76,10.6667
36.8,7.33333
36.84,7.33333
36.88,10
36.92,5.33333
36.96,8
37,6.66667
37.04,7.33333
37.08,8
37.12,8
37.16,9.33333
37.2,6
37.24,7.33333
37.28,3.33333
37.32,5.33333
37.36,7.33333
37.4,7.33333
37.44,6.66667
37.48,6.66667
37.52,8.66667
37.56,10
37.6,14
37.64,22
37.68,27.3333
37.72,23.3333
37.76,28.6667
37.8,22
37.84,10
37.88,9.33333
37.92,9.33333
37.96,4.66667
38,6
38.04,6.66667
38.08,5.33333
38.12,7.33333
38.16,11.3333
38.2,5.33333
38.24,7.33333
38.28,6
38.32,6.66667
38.36,7.33333
38.4,5.33333
38.44,9.33333
38.48,9.33333
38.52,14
38.56,13.3333
38.6,32
38.64,62.6667
38.68,67.3333
38.72,84.6667
38.76,90
38.8,66.6667
38.84,44.6667
38.88,24.6667
38.92,18
38.96,12
39,10.6667
39.04,9.33333
39.08,10.6667
39.12,12.6667
39.16,10.6667
39.2,11.3333
39.24,8.66667
39.28,7.33333
39.32,10
39.36,10.6667
39.4,12
39.44,25.3333
39.48,24.6667
39.52,21.3333
39.56,20.6667
39.6,19.3333
39.64,14.6667
39.68,6.66667
39.72,6.66667
39.76,6.66667
39.8,10.6667
39.84,10
39.88,8
39.92,8.66667
39.96,8.66667
40,11.3333
40.04,8
40.08,7.33333
40.12,12
40.16,11.3333
40.2,9.33333
40.24,12
40.28,5.33333
40.32,4.66667
40.36,10
40.4,12.6667
40.44,10.6667
40.48,20.6667
40.52,34.6667
40.56,39.3333
40.6,30
40.64,27.3333
40.68,24
40.72,21.3333
40.76,12.6667
40.8,12
40.84,10.6667
40.88,11.3333
40.92,8
40.96,4.66667
41,6
41.04,9.33333
41.08,5.33333
41.12,8.66667
41.16,8
41.2,6.66667
41.24,8.66667
41.28,8.66667
41.32,9.33333
41.36,17.3333
41.4,22
41.44,34.6667
41.48,36.6667
41.52,44
41.56,37.3333
41.6,33.3333
41.64,22
41.68,26.6667
41.72,34
41.76,24.6667
41.8,32.6667
41.84,40
41.88,28.6667
41.92,22.6667
41.96,14
42,9.33333
42.04,10
42.08,10
42.12,9.33333
42.16,7.33333
42.2,4
42.24,5.33333
42.28,8
42.32,6
42.36,3.33333
42.4,2.66667
42.44,6
42.48,5.33333
42.52,4
42.56,8
42.6,6
42.64,9.33333
42.68,6
42.72,8
42.76,2.66667
42.8,5.33333
42.84,7.33333
42.88,5.33333
42.92,5.33333
42.96,4.66667
43,4.66667
43.04,6.66667
43.08,6.66667
43.12,5.33333
43.16,5.33333
43.2,6.66667
43.24,5.33333
43.28,3.33333
43.32,5.33333
43.36,5.33333
43.4,8.66667
43.44,6
43.48,8.66667
43.52,11.3333
43.56,16
43.6,21.3333
43.64,24
43.68,31.3333
43.72,27.3333
43.76,36.6667
43.8,29.3333
43.84,40.6667
43.88,80
43.92,110.667
43.96,150
44,154
44.04,136
44.08,106
44.12,77.3333
44.16,46
44.2,23.3333
44.24,16
44.28,10
44.32,10
44.36,10
44.4,8.66667
44.44,6.66667
44.48,6
44.52,8
44.56,8.66667
44.6,8.66667
44.64,8
44.68,7.33333
44.72,6
44.76,6
44.8,5.33333
44.84,6.66667
44.88,11.3333
44.92,8
44.96,6.66667
45,11.3333
45.04,18
45.08,20.6667
45.12,22
45.16,20.6667
45.2,16.6667
45.24,18
45.28,10
45.32,12
45.36,8
45.4,7.33333
45.44,13.3333
45.48,13.3333
45.52,13.3333
45.56,16
45.6,13.3333
45.64,16.6667
45.68,14
45.72,10.6667
45.76,12.6667
45.8,14
45.84,17.3333
45.88,12.6667
45.92,12
45.96,10.6667
46,8
46.04,8
46.08,5.33333
46.12,6
46.16,5.33333
46.2,6.66667
46.24,8
46.28,8
46.32,8.66667
46.36,8.66667
46.4,8
46.44,16
46.48,20
46.52,22
46.56,25.3333
46.6,17.3333
46.64,18
46.68,15.3333
46.72,8.66667
46.76,6.66667
46.8,6
46.84,5.33333
46.88,4.66667
46.92,6
46.96,2
47,5.33333
47.04,6.66667
47.08,4.66667
47.12,6
47.16,6.66667
47.2,6
47.24,4.66667
47.28,6
47.32,10.6667
47.36,8.66667
47.4,8
47.44,11.3333
47.48,9.33333
47.52,9.33333
47.56,6
47.6,4.66667
47.64,4
47.68,4.66667
47.72,6.66667
47.76,8.66667
47.8,4.66667
47.84,3.33333
47.88,4
47.92,6.66667
47.96,4.66667
48,2.66667
48.04,4
48.08,4.66667
48.12,4.66667
48.16,4
48.2,3.33333
48.24,9.33333
48.28,6.66667
48.32,3.33333
48.36,8
48.4,11.3333
48.44,10.6667
48.48,23.3333
48.52,26
48.56,27.3333
48.6,25.3333
48.64,17.3333
48.68,21.3333
48.72,10.6667
48.76,10.6667
48.8,8.66667
48.84,5.33333
48.88,10.6667
48.92,7.33333
48.96,10
49,11.3333
49.04,16
49.08,20
49.12,26
49.16,44.6667
49.2,54
49.24,61.3333
49.28,77.3333
49.32,106
49.36,106.667
49.4,93.3333
49.44,94.6667
49.48,64.6667
49.52,44.6667
49.56,26
49.6,19.3333
49.64,12
49.68,9.33333
49.72,8
49.76,8.66667
49.8,11.3333
49.84,9.33333
49.88,15.3333
49.92,10.6667
49.96,10.6667
50,16.6667
50.04,14
50.08,15.3333
50.12,14
50.16,17.3333
50.2,23.3333
50.24,30.6667
50.28,25.3333
50.32,26
50.36,28.6667
50.4,18
50.44,22
50.48,29.3333
50.52,41.3333
50.56,66.6667
50.6,103.333
50.64,106
50.68,99.3333
50.72,90.6667
50.76,74.6667
50.8,67.3333
50.84,38.6667
50.88,26.6667
50.92,34.6667
50.96,20
51,18.6667
51.04,14.6667
51.08,12.6667
51.12,10.6667
51.16,8.66667
51.2,8
51.24,6
51.28,6.66667
51.32,4
51.36,7.33333
51.4,6
51.44,4.66667
51.48,6.66667
51.52,6.66667
51.56,8.66667
51.6,6
51.64,5.33333
51.68,8.66667
51.72,10
51.76,7.33333
51.8,5.33333
51.84,7.33333
51.88,7.33333
51.92,7.33333
51.96,6
52,10.6667
52.04,22.6667
52.08,23.3333
52.12,20.6667
52.16,17.3333
52.2,13.3333
52.24,16.6667
52.28,16
52.32,11.3333
52.36,8
52.4,8.66667
52.44,6.66667
52.48,8.66667
52.52,8
52.56,4.66667
52.6,6.66667
52.64,8
52.68,5.33333
52.72,10
52.76,10
52.8,6.66667
52.84,9.33333
52.88,8.66667
52.92,8
52.96,9.33333
53,8
53.04,14.6667
53.08,16
53.12,21.3333
53.16,22
53.2,18.6667
53.24,16.6667
53.28,22
53.32,20
53.36,22
53.4,17.3333
53.44,23.3333
53.48,25.3333
53.52,34.6667
53.56,26
53.6,32
53.64,42
53.68,64.6667
53.72,104.667
53.76,159.333
53.8,198.667
53.84,186
53.88,158
53.92,134.667
53.96,128.667
54,103.333
54.04,64
54.08,50.6667
54.12,32
54.16,28
54.2,24
54.24,15.3333
54.28,10.6667
54.32,10
54.36,8.66667
54.4,12
54.44,9.33333
54.48,10.6667
54.52,5.33333
54.56,6
54.6,9.33333
54.64,10
54.68,15.3333
54.72,20.6667
54.76,18
54.8,20
54.84,14.6667
54.88,18
54.92,11.3333
54.96,12.6667
55,10
55.04,8.66667
55.08,14
55.12,6.66667
55.16,9.33333
55.2,8.66667
55.24,13.3333
55.28,18.6667
55.32,16
55.36,17.3333
55.4,22.6667
55.44,46
55.48,62
55.52,86.6667
55.56,123.333
55.6,116.667
55.64,102
55.68,90.6667
55.72,75.3333
55.76,69.3333
55.8,39.3333
55.84,25.3333
55.88,25.3333
55.92,19.3333
55.96,14.6667
56,13.3333
56.04,12.6667
56.08,6.66667
56.12,8.66667
56.16,8
56.2,9.33333
56.24,12.6667
56.28,9.33333
56.32,10.6667
56.36,11.3333
56.4,18
56.44,8.66667
56.48,15.3333
56.52,20.6667
56.56,28
56.6,23.3333
56.64,20
56.68,16
56.72,19.3333
56.76,14
56.8,10.6667
56.84,5.33333
56.88,9.33333
56.92,14.6667
56.96,13.3333
57,10
57.04,10.6667
57.08,11.3333
57.12,11.3333
57.16,4.66667
57.2,12
57.24,8
57.28,2.66667
57.32,4.66667
57.36,6
57.4,7.33333
57.44,7.33333
57.48,9.33333
57.52,7.33333
57.56,9.33333
57.6,4.66667
57.64,8.66667
57.68,6
57.72,13.3333
57.76,18.6667
57.8,19.3333
57.84,22
57.88,22
57.92,13.3333
57.96,15.3333
58,22
58.04,25.3333
58.08,26.6667
58.12,18
58.16,31.3333
58.2,49.3333
58.24,98.6667
58.28,202
58.32,248.667
58.36,300.667
58.4,247.333
58.44,174
58.48,150.667
58.52,166
58.56,112
58.6,74
58.64,49.3333
58.68,27.3333
58.72,22.6667
58.76,20.6667
58.8,18
58.84,15.3333
58.88,14
58.92,7.33333
58.96,10.6667
59,7.33333
59.04,6.66667
59.08,10.6667
59.12,6
59.16,8
59.2,8.66667
59.24,9.33333
59.28,8
59.32,12
59.36,7.33333
59.4,9.33333
59.44,11.3333
59.48,15.3333
59.52,16
59.56,15.3333
59.6,23.3333
59.64,25.3333
59.68,20
59.72,21.3333
59.76,14
59.8,13.3333
59.84,11.3333
59.88,7.33333
59.92,7.33333
59.96,10.6667
60,8