File: XRD_graph/XRD_data/Li2ZnSn3O8_XRD/Li1.8Ca0.2ZnSn3O8_20240909.txt
2theta,Intensity
10,3.33333
10.04,8.33333
10.08,5
10.12,6.66667
10.16,5
10.2,5.83333
10.24,5.83333
10.28,9.16667
10.32,3.33333
10.36,4.16667
10.4,7.5
10.44,5
10.48,6.66667
10.52,8.33333
10.56,7.5
10.6,5
10.64,5.83333
10.68,4.16667
10.72,4.16667
10.76,5.83333
10.8,8.33333
10.84,2.5
10.88,6.66667
10.92,5
10.96,6.66667
11,5.83333
11.04,8.33333
11.08,5
11.12,9.16667
11.16,3.33333
11.2,9.16667
11.24,4.16667
11.28,4.16667
11.32,5.83333
11.36,4.16667
11.4,5
11.44,5
11.48,7.5
11.52,6.66667
11.56,6.66667
11.6,6.66667
11.64,7.5
11.68,5
11.72,7.5
11.76,9.16667
11.8,6.66667
11.84,4.16667
11.88,5.83333
11.92,5
11.96,6.66667
12,5
12.04,6.66667
12.08,5
12.12,4.16667
12.16,5.83333
12.2,4.16667
12.24,1.66667
12.28,5.83333
12.32,4.16667
12.36,2.5
12.4,5.83333
12.44,4.16667
12.48,9.16667
12.52,8.33333
12.56,9.16667
12.6,3.33333
12.64,4.16667
12.68,5.83333
12.72,7.5
12.76,5
12.8,2.5
12.84,3.33333
12.88,5
12.92,4.16667
12.96,5
13,4.16667
13.04,5
13.08,9.16667
13.12,4.16667
13.16,9.16667
13.2,8.33333
13.24,6.66667
13.28,6.66667
13.32,4.16667
13.36,4.16667
13.4,5
13.44,4.16667
13.48,5.83333
13.52,5.83333
13.56,4.16667
13.6,2.5
13.64,5.83333
13.68,5
13.72,4.16667
13.76,0.833333
13.8,5.83333
13.84,6.66667
13.88,0.833333
13.92,3.33333
13.96,3.33333
14,8.33333
14.04,5
14.08,3.33333
14.12,6.66667
14.16,5.83333
14.2,8.33333
14.24,5.83333
14.28,4.16667
14.32,6.66667
14.36,6.66667
14.4,5.83333
14.44,5.83333
14.48,3.33333
14.52,3.33333
14.56,6.66667
14.6,4.16667
14.64,5.83333
14.68,8.33333
14.72,7.5
14.76,8.33333
14.8,5.83333
14.84,3.33333
14.88,5
14.92,6.66667
14.96,3.33333
15,5
15.04,11.6667
15.08,5
15.12,3.33333
15.16,8.33333
15.2,7.5
15.24,3.33333
15.28,10
15.32,3.33333
15.36,4.16667
15.4,2.5
15.44,7.5
15.48,9.16667
15.52,7.5
15.56,5
15.6,6.66667
15.64,8.33333
15.68,2.5
15.72,6.66667
15.76,5
15.8,6.66667
15.84,7.5
15.88,6.66667
15.92,7.5
15.96,7.5
16,8.33333
16.04,5
16.08,2.5
16.12,6.66667
16.16,8.33333
16.2,3.33333
16.24,5.83333
16.28,5.83333
16.32,5.83333
16.36,3.33333
16.4,5
16.44,3.33333
16.48,8.33333
16.52,5.83333
16.56,6.66667
16.6,6.66667
16.64,10
16.68,5
16.72,8.33333
16.76,7.5
16.8,5.83333
16.84,5.83333
16.88,8.33333
16.92,9.16667
16.96,10
17,5.83333
17.04,5.83333
17.08,2.5
17.12,5
17.16,4.16667
17.2,5
17.24,5.83333
17.28,6.66667
17.32,8.33333
17.36,6.66667
17.4,7.5
17.44,7.5
17.48,6.66667
17.52,7.5
17.56,5.83333
17.6,8.33333
17.64,5
17.68,5.83333
17.72,6.66667
17.76,8.33333
17.8,9.16667
17.84,10
17.88,8.33333
17.92,10.8333
17.96,8.33333
18,4.16667
18.04,8.33333
18.08,4.16667
18.12,5
18.16,7.5
18.2,6.66667
18.24,5.83333
18.28,5.83333
18.32,5.83333
18.36,8.33333
18.4,5.83333
18.44,5.83333
18.48,5.83333
18.52,8.33333
18.56,6.66667
18.6,7.5
18.64,5.83333
18.68,8.33333
18.72,6.66667
18.76,9.16667
18.8,7.5
18.84,8.33333
18.88,10
18.92,9.16667
18.96,13.3333
19,13.3333
19.04,12.5
19.08,10.8333
19.12,9.16667
19.16,7.5
19.2,6.66667
19.24,13.3333
19.28,10
19.32,13.3333
19.36,12.5
19.4,12.5
19.44,11.6667
19.48,6.66667
19.52,11.6667
19.56,5.83333
19.6,4.16667
19.64,2.5
19.68,9.16667
19.72,4.16667
19.76,6.66667
19.8,7.5
19.84,7.5
19.88,10.8333
19.92,6.66667
19.96,7.5
20,4.16667
20.04,7.5
20.08,5.83333
20.12,4.16667
20.16,6.66667
20.2,7.5
20.24,5
20.28,5.83333
20.32,6.66667
20.36,5
20.4,4.16667
20.44,5
20.48,6.66667
20.52,5.83333
20.56,5
20.6,4.16667
20.64,7.5
20.68,6.66667
20.72,6.66667
20.76,5.83333
20.8,5.83333
20.84,6.66667
20.88,5
20.92,3.33333
20.96,2.5
21,6.66667
21.04,5.83333
21.08,5.83333
21.12,10
21.16,5.83333
21.2,6.66667
21.24,6.66667
21.28,10.8333
21.32,15.8333
21.36,14.1667
21.4,15
21.44,13.3333
21.48,11.6667
21.52,9.16667
21.56,6.66667
21.6,6.66667
21.64,4.16667
21.68,5.83333
21.72,8.33333
21.76,5.83333
21.8,5
21.84,6.66667
21.88,4.16667
21.92,5.83333
21.96,6.66667
22,4.16667
22.04,6.66667
22.08,6.66667
22.12,5
22.16,6.66667
22.2,8.33333
22.24,7.5
22.28,6.66667
22.32,1.66667
22.36,5
22.4,6.66667
22.44,5.83333
22.48,6.66667
22.52,10
22.56,7.5
22.6,6.66667
22.64,5.83333
22.68,6.66667
22.72,5
22.76,7.5
22.8,7.5
22.84,5
22.88,5
22.92,5.83333
22.96,4.16667
23,3.33333
23.04,6.66667
23.08,7.5
23.12,5.83333
23.16,8.33333
23.2,5.83333
23.24,3.33333
23.28,4.16667
23.32,5
23.36,5.83333
23.4,3.33333
23.44,3.33333
23.48,7.5
23.52,5
23.56,6.66667
23.6,6.66667
23.64,5
23.68,5.83333
23.72,5
23.76,7.5
23.8,9.16667
23.84,4.16667
23.88,5
23.92,3.33333
23.96,4.16667
24,5.83333
24.04,4.16667
24.08,4.16667
24.12,4.16667
24.16,4.16667
24.2,4.16667
24.24,6.66667
24.28,4.16667
24.32,5.83333
24.36,5.83333
24.4,10
24.44,10.8333
24.48,8.33333
24.52,16.6667
24.56,16.6667
24.6,20.8333
24.64,20.8333
24.68,18.3333
24.72,10.8333
24.76,14.1667
24.8,10
24.84,10
24.88,7.5
24.92,5
24.96,6.66667
25,5
25.04,5.83333
25.08,5.83333
25.12,6.66667
25.16,9.16667
25.2,5
25.24,5.83333
25.28,3.33333
25.32,8.33333
25.36,7.5
25.4,7.5
25.44,5
25.48,4.16667
25.52,3.33333
25.56,6.66667
25.6,3.33333
25.64,10.8333
25.68,8.33333
25.72,12.5
25.76,11.6667
25.8,7.5
25.84,7.5
25.88,8.33333
25.92,5
25.96,5
26,5
26.04,7.5
26.08,7.5
26.12,6.66667
26.16,5.83333
26.2,9.16667
26.24,10.8333
26.28,7.5
26.32,6.66667
26.36,16.6667
26.4,10
26.44,11.6667
26.48,19.1667
26.52,20.8333
26.56,30
26.6,24.1667
26.64,12.5
26.68,14.1667
26.72,7.5
26.76,10
26.8,8.33333
26.84,6.66667
26.88,6.66667
26.92,4.16667
26.96,5.83333
27,6.66667
27.04,5
27.08,5.83333
27.12,9.16667
27.16,7.5
27.2,5
27.24,5.83333
27.28,9.16667
27.32,6.66667
27.36,10.8333
27.4,10.8333
27.44,7.5
27.48,7.5
27.52,7.5
27.56,8.33333
27.6,5.83333
27.64,1.66667
27.68,5
27.72,5.83333
27.76,4.16667
27.8,7.5
27.84,5
27.88,10
27.92,3.33333
27.96,7.5
28,3.33333
28.04,6.66667
28.08,4.16667
28.12,5.83333
28.16,1.66667
28.2,1.66667
28.24,4.16667
28.28,5
28.32,3.33333
28.36,5
28.4,3.33333
28.44,8.33333
28.48,3.33333
28.52,3.33333
28.56,5.83333
28.6,7.5
28.64,1.66667
28.68,11.6667
28.72,6.66667
28.76,5.83333
28.8,5
28.84,5.83333
28.88,3.33333
28.92,5
28.96,3.33333
29,6.66667
29.04,4.16667
29.08,5.83333
29.12,7.5
29.16,7.5
29.2,8.33333
29.24,6.66667
29.28,14.1667
29.32,14.1667
29.36,11.6667
29.4,5.83333
29.44,9.16667
29.48,5
29.52,5.83333
29.56,4.16667
29.6,7.5
29.64,7.5
29.68,5
29.72,5
29.76,6.66667
29.8,5.83333
29.84,4.16667
29.88,5
29.92,5
29.96,5
30,5
30.04,3.33333
30.08,9.16667
30.12,6.66667
30.16,7.5
30.2,8.33333
30.24,4.16667
30.28,1.66667
30.32,3.33333
30.36,4.16667
30.4,3.33333
30.44,4.16667
30.48,5.83333
30.52,7.5
30.56,5
30.6,6.66667
30.64,2.5
30.68,3.33333
30.72,2.5
30.76,3.33333
30.8,2.5
30.84,6.66667
30.88,4.16667
30.92,5
30.96,7.5
31,8.33333
31.04,5
31.08,5.83333
31.12,4.16667
31.16,5.83333
31.2,5
31.24,5.83333
31.28,2.5
31.32,5
31.36,5.83333
31.4,4.16667
31.44,5.83333
31.48,8.33333
31.52,6.66667
31.56,5.83333
31.6,9.16667
31.64,7.5
31.68,5.83333
31.72,10.8333
31.76,9.16667
31.8,8.33333
31.84,12.5
31.88,23.3333
31.92,25
31.96,32.5
32,35.8333
32.04,35
32.08,24.1667
32.12,17.5
32.16,13.3333
32.2,10
32.24,6.66667
32.28,10
32.32,8.33333
32.36,7.5
32.4,2.5
32.44,5.83333
32.48,7.5
32.52,4.16667
32.56,4.16667
32.6,5.83333
32.64,3.33333
32.68,5
32.72,5
32.76,6.66667
32.8,6.66667
32.84,5.83333
32.88,6.66667
32.92,5
32.96,4.16667
33,3.33333
33.04,3.33333
33.08,8.33333
33.12,5.83333
33.16,5
33.2,5
33.24,5.83333
33.28,5
33.32,4.16667
33.36,5.83333
33.4,5.83333
33.44,6.66667
33.48,5.83333
33.52,9.16667
33.56,10
33.6,10
33.64,6.66667
33.68,7.5
33.72,9.16667
33.76,10.8333
33.8,24.1667
33.84,13.3333
33.88,17.5
33.92,20
33.96,20
34,18.3333
34.04,14.1667
34.08,16.6667
34.12,15
34.16,12.5
34.2,10.8333
34.24,5.83333
34.28,8.33333
34.32,7.5
34.36,8.33333
34.4,10.8333
34.44,13.3333
34.48,22.5
34.52,29.1667
34.56,36.6667
34.6,50
34.64,45.8333
34.68,38.3333
34.72,20.8333
34.76,12.5
34.8,10.8333
34.84,6.66667
34.88,10
34.92,9.16667
34.96,10.8333
35,8.33333
35.04,9.16667
35.08,6.66667
35.12,14.1667
35.16,24.1667
35.2,30
35.24,33.3333
35.28,30.8333
35.32,29.1667
35.36,18.3333
35.4,15
35.44,10
35.48,2.5
35.52,7.5
35.56,10
35.6,4.16667
35.64,6.66667
35.68,5
35.72,6.66667
35.76,4.16667
35.8,10
35.84,6.66667
35.88,5.83333
35.92,4.16667
35.96,3.33333
36,7.5
36.04,5
36.08,2.5
36.12,3.33333
36.16,9.16667
36.2,8.33333
36.24,7.5
36.28,8.33333
36.32,8.33333
36.36,6.66667
36.4,4.16667
36.44,10
36.48,4.16667
36.52,4.16667
36.56,6.66667
36.6,3.33333
36.64,5
36.68,6.66667
36.72,3.33333
36.76,4.16667
36.8,4.16667
36.84,3.33333
36.88,6.66667
36.92,3.33333
36.96,2.5
37,4.16667
37.04,3.33333
37.08,5
37.12,2.5
37.16,3.33333
37.2,2.5
37.24,5.83333
37.28,2.5
37.32,3.33333
37.36,3.33333
37.4,4.16667
37.44,3.33333
37.48,4.16667
37.52,5
37.56,8.33333
37.6,5.83333
37.64,5.83333
37.68,3.33333
37.72,8.33333
37.76,5
37.8,10
37.84,4.16667
37.88,7.5
37.92,6.66667
37.96,6.66667
38,6.66667
38.04,4.16667
38.08,3.33333
38.12,4.16667
38.16,4.16667
38.2,5.83333
38.24,4.16667
38.28,2.5
38.32,2.5
38.36,4.16667
38.4,2.5
38.44,2.5
38.48,4.16667
38.52,6.66667
38.56,5.83333
38.6,8.33333
38.64,5
38.68,14.1667
38.72,9.16667
38.76,6.66667
38.8,10.8333
38.84,7.5
38.88,8.33333
38.92,5.83333
38.96,3.33333
39,3.33333
39.04,2.5
39.08,3.33333
39.12,5
39.16,3.33333
39.2,4.16667
39.24,4.16667
39.28,3.33333
39.32,3.33333
39.36,6.66667
39.4,4.16667
39.44,4.16667
39.48,5
39.52,5
39.56,3.33333
39.6,7.5
39.64,1.66667
39.68,3.33333
39.72,2.5
39.76,3.33333
39.8,2.5
39.84,4.16667
39.88,3.33333
39.92,5
39.96,6.66667
40,0.833333
40.04,6.66667
40.08,3.33333
40.12,3.33333
40.16,2.5
40.2,3.33333
40.24,3.33333
40.28,5.83333
40.32,4.16667
40.36,2.5
40.4,6.66667
40.44,2.5
40.48,6.66667
40.52,2.5
40.56,5.83333
40.6,5
40.64,5
40.68,8.33333
40.72,3.33333
40.76,5
40.8,2.5
40.84,6.66667
40.88,3.33333
40.92,1.66667
40.96,2.5
41,1.66667
41.04,5
41.08,3.33333
41.12,4.16667
41.16,3.33333
41.2,6.66667
41.24,4.16667
41.28,7.5
41.32,5
41.36,2.5
41.4,5
41.44,5.83333
41.48,10
41.52,4.16667
41.56,6.66667
41.6,5.83333
41.64,10
41.68,5
41.72,6.66667
41.76,4.16667
41.8,5.83333
41.84,5
41.88,5
41.92,3.33333
41.96,4.16667
42,5.83333
42.04,3.33333
42.08,4.16667
42.12,3.33333
42.16,1.66667
42.2,2.5
42.24,5
42.28,5.83333
42.32,2.5
42.36,2.5
42.4,6.66667
42.44,3.33333
42.48,2.5
42.52,3.33333
42.56,4.16667
42.6,4.16667
42.64,5.83333
42.68,5
42.72,3.33333
42.76,4.16667
42.8,5
42.84,2.5
42.88,3.33333
42.92,4.16667
42.96,5.83333
43,5.83333
43.04,4.16667
43.08,5
43.12,5.83333
43.16,4.16667
43.2,5
43.24,2.5
43.28,5
43.32,3.33333
43.36,5
43.4,0.833333
43.44,4.16667
43.48,4.16667
43.52,5
43.56,5
43.6,5
43.64,6.66667
43.68,8.33333
43.72,2.5
43.76,7.5
43.8,9.16667
43.84,8.33333
43.88,7.5
43.92,12.5
43.96,18.3333
44,15
44.04,20
44.08,12.5
44.12,7.5
44.16,5
44.2,5.83333
44.24,5.83333
44.28,5.83333
44.32,5
44.36,4.16667
44.4,4.16667
44.44,5
44.48,3.33333
44.52,2.5
44.56,5
44.6,3.33333
44.64,5
44.68,1.66667
44.72,5
44.76,7.5
44.8,5.83333
44.84,4.16667
44.88,7.5
44.92,4.16667
44.96,6.66667
45,5
45.04,8.33333
45.08,5
45.12,8.33333
45.16,6.66667
45.2,5.83333
45.24,5.83333
45.28,2.5
45.32,4.16667
45.36,5
45.4,3.33333
45.44,5.83333
45.48,5
45.52,3.33333
45.56,6.66667
45.6,5.83333
45.64,5
45.68,7.5
45.72,5.83333
45.76,5
45.8,8.33333
45.84,9.16667
45.88,6.66667
45.92,4.16667
45.96,3.33333
46,5
46.04,3.33333
46.08,4.16667
46.12,2.5
46.16,2.5
46.2,5
46.24,4.16667
46.28,5.83333
46.32,5
46.36,7.5
46.4,3.33333
46.44,5
46.48,6.66667
46.52,8.33333
46.56,4.16667
46.6,3.33333
46.64,7.5
46.68,3.33333
46.72,3.33333
46.76,5
46.8,5.83333
46.84,3.33333
46.88,7.5
46.92,5.83333
46.96,7.5
47,2.5
47.04,4.16667
47.08,2.5
47.12,3.33333
47.16,4.16667
47.2,6.66667
47.24,4.16667
47.28,4.16667
47.32,2.5
47.36,4.16667
47.4,3.33333
47.44,5
47.48,5
47.52,4.16667
47.56,6.66667
47.6,4.16667
47.64,6.66667
47.68,4.16667
47.72,5.83333
47.76,6.66667
47.8,2.5
47.84,5
47.88,3.33333
47.92,2.5
47.96,5
48,4.16667
48.04,4.16667
48.08,5.83333
48.12,4.16667
48.16,5
48.2,6.66667
48.24,5.83333
48.28,1.66667
48.32,5
48.36,3.33333
48.4,4.16667
48.44,5
48.48,8.33333
48.52,7.5
48.56,7.5
48.6,5.83333
48.64,5
48.68,6.66667
48.72,9.16667
48.76,5.83333
48.8,4.16667
48.84,4.16667
48.88,5
48.92,6.66667
48.96,8.33333
49,6.66667
49.04,9.16667
49.08,10
49.12,9.16667
49.16,13.3333
49.2,10.8333
49.24,12.5
49.28,10.8333
49.32,16.6667
49.36,21.6667
49.4,16.6667
49.44,6.66667
49.48,7.5
49.52,6.66667
49.56,6.66667
49.6,8.33333
49.64,4.16667
49.68,5
49.72,2.5
49.76,7.5
49.8,5
49.84,5.83333
49.88,4.16667
49.92,7.5
49.96,6.66667
50,5
50.04,7.5
50.08,5.83333
50.12,10.8333
50.16,6.66667
50.2,6.66667
50.24,7.5
50.28,5.83333
50.32,10
50.36,5.83333
50.4,5.83333
50.44,5
50.48,5.83333
50.52,7.5
50.56,14.1667
50.6,9.16667
50.64,15.8333
50.68,19.1667
50.72,13.3333
50.76,9.16667
50.8,7.5
50.84,5.83333
50.88,8.33333
50.92,7.5
50.96,4.16667
51,7.5
51.04,5.83333
51.08,8.33333
51.12,5
51.16,4.16667
51.2,5.83333
51.24,5
51.28,5
51.32,6.66667
51.36,7.5
51.4,4.16667
51.44,5
51.48,4.16667
51.52,5
51.56,5.83333
51.6,4.16667
51.64,10
51.68,13.3333
51.72,12.5
51.76,15
51.8,10
51.84,9.16667
51.88,10.8333
51.92,14.1667
51.96,9.16667
52,5.83333
52.04,7.5
52.08,5.83333
52.12,6.66667
52.16,6.66667
52.2,9.16667
52.24,9.16667
52.28,4.16667
52.32,4.16667
52.36,5.83333
52.4,5
52.44,2.5
52.48,5
52.52,5.83333
52.56,5
52.6,4.16667
52.64,6.66667
52.68,8.33333
52.72,8.33333
52.76,4.16667
52.8,5.83333
52.84,5
52.88,6.66667
52.92,5
52.96,5
53,5
53.04,4.16667
53.08,5
53.12,7.5
53.16,8.33333
53.2,4.16667
53.24,6.66667
53.28,7.5
53.32,7.5
53.36,6.66667
53.4,5.83333
53.44,8.33333
53.48,7.5
53.52,9.16667
53.56,7.5
53.6,5.83333
53.64,10
53.68,14.1667
53.72,16.6667
53.76,23.3333
53.8,22.5
53.84,20
53.88,16.6667
53.92,17.5
53.96,16.6667
54,14.1667
54.04,12.5
54.08,10.8333
54.12,10
54.16,9.16667
54.2,10.8333
54.24,6.66667
54.28,5.83333
54.32,6.66667
54.36,6.66667
54.4,4.16667
54.44,5.83333
54.48,4.16667
54.52,7.5
54.56,6.66667
54.6,5
54.64,6.66667
54.68,6.66667
54.72,8.33333
54.76,10.8333
54.8,12.5
54.84,7.5
54.88,7.5
54.92,3.33333
54.96,3.33333
55,5.83333
55.04,5.83333
55.08,3.33333
55.12,5.83333
55.16,5
55.2,5.83333
55.24,3.33333
55.28,5
55.32,10
55.36,5.83333
55.4,5.83333
55.44,11.6667
55.48,11.6667
55.52,17.5
55.56,19.1667
55.6,17.5
55.64,17.5
55.68,12.5
55.72,21.6667
55.76,11.6667
55.8,15
55.84,9.16667
55.88,7.5
55.92,5
55.96,9.16667
56,8.33333
56.04,7.5
56.08,6.66667
56.12,7.5
56.16,7.5
56.2,9.16667
56.24,1.66667
56.28,5
56.32,5
56.36,9.16667
56.4,2.5
56.44,10.8333
56.48,10.8333
56.52,8.33333
56.56,9.16667
56.6,8.33333
56.64,4.16667
56.68,6.66667
56.72,8.33333
56.76,7.5
56.8,8.33333
56.84,6.66667
56.88,8.33333
56.92,10
56.96,4.16667
57,8.33333
57.04,10.8333
57.08,5.83333
57.12,6.66667
57.16,8.33333
57.2,10
57.24,5
57.28,5.83333
57.32,1.66667
57.36,7.5
57.4,9.16667
57.44,7.5
57.48,7.5
57.52,7.5
57.56,2.5
57.6,5
57.64,7.5
57.68,14.1667
57.72,4.16667
57.76,8.33333
57.8,12.5
57.84,9.16667
57.88,10.8333
57.92,9.16667
57.96,7.5
58,10.8333
58.04,9.16667
58.08,6.66667
58.12,12.5
58.16,6.66667
58.2,5
58.24,20
58.28,21.6667
58.32,32.5
58.36,33.3333
58.4,28.3333
58.44,31.6667
58.48,18.3333
58.52,24.1667
58.56,14.1667
58.6,18.3333
58.64,11.6667
58.68,9.16667
58.72,7.5
58.76,8.33333
58.8,4.16667
58.84,3.33333
58.88,2.5
58.92,7.5
58.96,5
59,5.83333
59.04,5.83333
59.08,10.8333
59.12,5
59.16,5
59.2,5.83333
59.24,6.66667
59.28,4.16667
59.32,5
59.36,6.66667
59.4,10
59.44,7.5
59.48,5
59.52,10.8333
59.56,5
59.6,5
59.64,7.5
59.68,7.5
59.72,8.33333
59.76,8.33333
59.8,7.5
59.84,5
59.88,2.5
59.92,5
59.96,10
60,5