File: XRD_graph/XRD_data/Li2ZnSn3O8_XRD/Li2.5Zn0.8Ga0.2Sn3O8_H2kangen.txt
2theta,Intensity
10,7.33333
10.04,8
10.08,8
10.12,8
10.16,6.66667
10.2,8.66667
10.24,6
10.28,5.33333
10.32,7.33333
10.36,4.66667
10.4,8
10.44,9.33333
10.48,5.33333
10.52,6.66667
10.56,8
10.6,6
10.64,4.66667
10.68,6.66667
10.72,6.66667
10.76,8.66667
10.8,10.6667
10.84,9.33333
10.88,6
10.92,8.66667
10.96,6.66667
11,6.66667
11.04,6
11.08,8.66667
11.12,7.33333
11.16,4.66667
11.2,9.33333
11.24,4.66667
11.28,7.33333
11.32,6.66667
11.36,7.33333
11.4,5.33333
11.44,8
11.48,8
11.52,4.66667
11.56,8
11.6,8.66667
11.64,6.66667
11.68,4
11.72,5.33333
11.76,8.66667
11.8,5.33333
11.84,7.33333
11.88,5.33333
11.92,6.66667
11.96,6
12,7.33333
12.04,8
12.08,6
12.12,6.66667
12.16,9.33333
12.2,9.33333
12.24,7.33333
12.28,4.66667
12.32,11.3333
12.36,6.66667
12.4,10
12.44,8.66667
12.48,10
12.52,8.66667
12.56,9.33333
12.6,8.66667
12.64,10.6667
12.68,8.66667
12.72,12
12.76,10.6667
12.8,10
12.84,10
12.88,10.6667
12.92,10.6667
12.96,8.66667
13,13.3333
13.04,6.66667
13.08,16.6667
13.12,22.6667
13.16,22
13.2,28
13.24,29.3333
13.28,25.3333
13.32,18
13.36,9.33333
13.4,9.33333
13.44,6.66667
13.48,6.66667
13.52,5.33333
13.56,8
13.6,7.33333
13.64,8
13.68,4.66667
13.72,10
13.76,7.33333
13.8,8.66667
13.84,6.66667
13.88,4.66667
13.92,6
13.96,9.33333
14,11.3333
14.04,8
14.08,4.66667
14.12,10
14.16,6
14.2,4.66667
14.24,5.33333
14.28,4.66667
14.32,4.66667
14.36,8
14.4,6
14.44,6.66667
14.48,8
14.52,6
14.56,6
14.6,9.33333
14.64,6.66667
14.68,6
14.72,2
14.76,6
14.8,5.33333
14.84,2.66667
14.88,5.33333
14.92,6
14.96,12.6667
15,6.66667
15.04,6
15.08,5.33333
15.12,4.66667
15.16,6.66667
15.2,4
15.24,6.66667
15.28,10
15.32,2
15.36,6
15.4,8.66667
15.44,4
15.48,6.66667
15.52,6.66667
15.56,5.33333
15.6,3.33333
15.64,6.66667
15.68,8
15.72,9.33333
15.76,10
15.8,6.66667
15.84,4.66667
15.88,6
15.92,8.66667
15.96,12
16,7.33333
16.04,16
16.08,12
16.12,10
16.16,8.66667
16.2,9.33333
16.24,8.66667
16.28,12
16.32,13.3333
16.36,10.6667
16.4,13.3333
16.44,6.66667
16.48,11.3333
16.52,13.3333
16.56,12
16.6,11.3333
16.64,10
16.68,14
16.72,26
16.76,32
16.8,47.3333
16.84,59.3333
16.88,64
16.92,60
16.96,44
17,25.3333
17.04,17.3333
17.08,17.3333
17.12,18.6667
17.16,16
17.2,14.6667
17.24,17.3333
17.28,16.6667
17.32,16
17.36,14.6667
17.4,15.3333
17.44,17.3333
17.48,14.6667
17.52,20.6667
17.56,19.3333
17.6,19.3333
17.64,22.6667
17.68,24.6667
17.72,26.6667
17.76,31.3333
17.8,50
17.84,72.6667
17.88,98
17.92,136
17.96,142
18,120
18.04,69.3333
18.08,38
18.12,31.3333
18.16,16.6667
18.2,20.6667
18.24,12.6667
18.28,19.3333
18.32,16.6667
18.36,15.3333
18.4,14.6667
18.44,12
18.48,13.3333
18.52,12.6667
18.56,12
18.6,10
18.64,12.6667
18.68,13.3333
18.72,14
18.76,17.3333
18.8,17.3333
18.84,23.3333
18.88,32.6667
18.92,40
18.96,55.3333
19,85.3333
19.04,134
19.08,222
19.12,278
19.16,271.333
19.2,208
19.24,104
19.28,57.3333
19.32,54.6667
19.36,54
19.4,84
19.44,109.333
19.48,150
19.52,186
19.56,160
19.6,90
19.64,44
19.68,29.3333
19.72,20
19.76,14.6667
19.8,16
19.84,14.6667
19.88,16
19.92,14
19.96,14.6667
20,14
20.04,12.6667
20.08,18
20.12,12
20.16,13.3333
20.2,16
20.24,20
20.28,16.6667
20.32,20
20.36,27.3333
20.4,31.3333
20.44,42.6667
20.48,38.6667
20.52,34
20.56,16
20.6,16.6667
20.64,12.6667
20.68,17.3333
20.72,12.6667
20.76,13.3333
20.8,8
20.84,10
20.88,12
20.92,14
20.96,13.3333
21,10.6667
21.04,12
21.08,12
21.12,16.6667
21.16,14.6667
21.2,22
21.24,20.6667
21.28,24.6667
21.32,42
21.36,72
21.4,110
21.44,150.667
21.48,220.667
21.52,239.333
21.56,194
21.6,122
21.64,56
21.68,32
21.72,23.3333
21.76,18.6667
21.8,19.3333
21.84,16
21.88,13.3333
21.92,9.33333
21.96,10
22,12
22.04,13.3333
22.08,12.6667
22.12,10.6667
22.16,13.3333
22.2,8.66667
22.24,8.66667
22.28,14.6667
22.32,11.3333
22.36,10
22.4,10
22.44,12
22.48,13.3333
22.52,8.66667
22.56,9.33333
22.6,11.3333
22.64,8.66667
22.68,10
22.72,6.66667
22.76,10
22.8,6
22.84,8
22.88,10
22.92,8.66667
22.96,8
23,8.66667
23.04,8.66667
23.08,9.33333
23.12,10
23.16,12.6667
23.2,6.66667
23.24,8
23.28,7.33333
23.32,7.33333
23.36,7.33333
23.4,7.33333
23.44,6.66667
23.48,8
23.52,8.66667
23.56,5.33333
23.6,4.66667
23.64,7.33333
23.68,5.33333
23.72,6.66667
23.76,6.66667
23.8,9.33333
23.84,6.66667
23.88,8.66667
23.92,7.33333
23.96,7.33333
24,8
24.04,8
24.08,10.6667
24.12,8.66667
24.16,8.66667
24.2,7.33333
24.24,14
24.28,14.6667
24.32,14
24.36,16.6667
24.4,14.6667
24.44,22.6667
24.48,24.6667
24.52,30.6667
24.56,56
24.6,80.6667
24.64,140.667
24.68,248
24.72,339.333
24.76,411.333
24.8,357.333
24.84,191.333
24.88,86
24.92,44
24.96,27.3333
25,22.6667
25.04,25.3333
25.08,18.6667
25.12,12
25.16,14.6667
25.2,10.6667
25.24,11.3333
25.28,7.33333
25.32,8.66667
25.36,10.6667
25.4,10
25.44,8.66667
25.48,15.3333
25.52,11.3333
25.56,12.6667
25.6,13.3333
25.64,10
25.68,13.3333
25.72,12
25.76,12.6667
25.8,18.6667
25.84,21.3333
25.88,43.3333
25.92,50.6667
25.96,35.3333
26,33.3333
26.04,22.6667
26.08,16
26.12,16
26.16,11.3333
26.2,8.66667
26.24,10
26.28,14
26.32,12.6667
26.36,16
26.4,16
26.44,22
26.48,27.3333
26.52,42
26.56,64
26.6,104.667
26.64,124
26.68,129.333
26.72,103.333
26.76,58.6667
26.8,27.3333
26.84,22.6667
26.88,20.6667
26.92,12.6667
26.96,14.6667
27,10
27.04,15.3333
27.08,11.3333
27.12,12
27.16,14.6667
27.2,14
27.24,16
27.28,14
27.32,14
27.36,30.6667
27.4,42.6667
27.44,60
27.48,76
27.52,58
27.56,39.3333
27.6,27.3333
27.64,12.6667
27.68,16
27.72,10.6667
27.76,10
27.8,8.66667
27.84,16
27.88,16.6667
27.92,11.3333
27.96,7.33333
28,4.66667
28.04,5.33333
28.08,10
28.12,10.6667
28.16,6.66667
28.2,8.66667
28.24,8.66667
28.28,6.66667
28.32,11.3333
28.36,6.66667
28.4,13.3333
28.44,14.6667
28.48,14.6667
28.52,10
28.56,8.66667
28.6,8
28.64,14.6667
28.68,12
28.72,14.6667
28.76,8.66667
28.8,18.6667
28.84,14.6667
28.88,22
28.92,15.3333
28.96,14
29,11.3333
29.04,12.6667
29.08,10
29.12,10.6667
29.16,17.3333
29.2,13.3333
29.24,16.6667
29.28,18.6667
29.32,24
29.36,33.3333
29.4,55.3333
29.44,87.3333
29.48,102.667
29.52,92.6667
29.56,56.6667
29.6,41.3333
29.64,13.3333
29.68,16
29.72,16.6667
29.76,10
29.8,12.6667
29.84,8
29.88,10
29.92,7.33333
29.96,7.33333
30,10
30.04,13.3333
30.08,9.33333
30.12,10
30.16,12.6667
30.2,9.33333
30.24,13.3333
30.28,6
30.32,10
30.36,6.66667
30.4,8
30.44,10.6667
30.48,12
30.52,8.66667
30.56,8
30.6,8
30.64,7.33333
30.68,14.6667
30.72,6
30.76,10
30.8,8.66667
30.84,6.66667
30.88,11.3333
30.92,6
30.96,7.33333
31,10.6667
31.04,7.33333
31.08,7.33333
31.12,4.66667
31.16,10.6667
31.2,7.33333
31.24,11.3333
31.28,8.66667
31.32,8
31.36,7.33333
31.4,9.33333
31.44,10.6667
31.48,11.3333
31.52,17.3333
31.56,18
31.6,22.6667
31.64,42.6667
31.68,43.3333
31.72,72.6667
31.76,66.6667
31.8,66.6667
31.84,48.6667
31.88,49.3333
31.92,63.3333
31.96,86.6667
32,167.333
32.04,290
32.08,426
32.12,456
32.16,360.667
32.2,226
32.24,117.333
32.28,48.6667
32.32,34.6667
32.36,30.6667
32.4,24
32.44,16
32.48,20
32.52,16
32.56,9.33333
32.6,11.3333
32.64,11.3333
32.68,9.33333
32.72,12.6667
32.76,9.33333
32.8,8.66667
32.84,10
32.88,10.6667
32.92,10.6667
32.96,10
33,10
33.04,8.66667
33.08,8.66667
33.12,8
33.16,12
33.2,12
33.24,12
33.28,12
33.32,12
33.36,13.3333
33.4,12.6667
33.44,17.3333
33.48,25.3333
33.52,30.6667
33.56,42.6667
33.6,55.3333
33.64,58.6667
33.68,48.6667
33.72,38
33.76,28.6667
33.8,15.3333
33.84,18
33.88,20
33.92,18.6667
33.96,20.6667
34,25.3333
34.04,41.3333
34.08,84.6667
34.12,130.667
34.16,184.667
34.2,194
34.24,157.333
34.28,112.667
34.32,78
34.36,49.3333
34.4,46
34.44,44
34.48,47.3333
34.52,54.6667
34.56,69.3333
34.6,121.333
34.64,213.333
34.68,410
34.72,582
34.76,614.667
34.8,493.333
34.84,326.667
34.88,194.667
34.92,76.6667
34.96,50.6667
35,37.3333
35.04,35.3333
35.08,40
35.12,30
35.16,36.6667
35.2,46
35.24,66.6667
35.28,129.333
35.32,242.667
35.36,364
35.4,446
35.44,388
35.48,308.667
35.52,184
35.56,92
35.6,37.3333
35.64,28.6667
35.68,26
35.72,21.3333
35.76,25.3333
35.8,21.3333
35.84,18
35.88,16
35.92,20
35.96,16
36,22
36.04,18.6667
36.08,20.6667
36.12,16.6667
36.16,16.6667
36.2,18
36.24,24
36.28,21.3333
36.32,54
36.36,72
36.4,88.6667
36.44,74.6667
36.48,60
36.52,36.6667
36.56,22.6667
36.6,16
36.64,10.6667
36.68,11.3333
36.72,12.6667
36.76,12.6667
36.8,16
36.84,12.6667
36.88,14
36.92,8
36.96,8
37,10.6667
37.04,4.66667
37.08,5.33333
37.12,6.66667
37.16,8
37.2,8
37.24,8
37.28,6.66667
37.32,6.66667
37.36,6.66667
37.4,6.66667
37.44,6.66667
37.48,6
37.52,8
37.56,8.66667
37.6,10
37.64,8.66667
37.68,9.33333
37.72,10.6667
37.76,21.3333
37.8,20.6667
37.84,39.3333
37.88,27.3333
37.92,28.6667
37.96,17.3333
38,15.3333
38.04,9.33333
38.08,6
38.12,6.66667
38.16,5.33333
38.2,8
38.24,4.66667
38.28,9.33333
38.32,7.33333
38.36,6
38.4,4.66667
38.44,6
38.48,7.33333
38.52,5.33333
38.56,11.3333
38.6,6.66667
38.64,8.66667
38.68,9.33333
38.72,14
38.76,25.3333
38.8,61.3333
38.84,91.3333
38.88,100.667
38.92,92
38.96,69.3333
39,51.3333
39.04,22.6667
39.08,12
39.12,10.6667
39.16,11.3333
39.2,8
39.24,11.3333
39.28,8
39.32,8.66667
39.36,6.66667
39.4,8
39.44,2.66667
39.48,12.6667
39.52,8
39.56,14.6667
39.6,21.3333
39.64,34
39.68,24
39.72,23.3333
39.76,20
39.8,14
39.84,10
39.88,8.66667
39.92,7.33333
39.96,9.33333
40,4
40.04,9.33333
40.08,8
40.12,13.3333
40.16,16.6667
40.2,16
40.24,10
40.28,12.6667
40.32,5.33333
40.36,10.6667
40.4,7.33333
40.44,10.6667
40.48,7.33333
40.52,8.66667
40.56,10.6667
40.6,9.33333
40.64,16
40.68,19.3333
40.72,46
40.76,40.6667
40.8,35.3333
40.84,20.6667
40.88,20.6667
40.92,11.3333
40.96,6.66667
41,7.33333
41.04,8.66667
41.08,9.33333
41.12,5.33333
41.16,9.33333
41.2,14
41.24,8
41.28,7.33333
41.32,8
41.36,8
41.4,11.3333
41.44,8.66667
41.48,17.3333
41.52,16.6667
41.56,27.3333
41.6,28
41.64,39.3333
41.68,38
41.72,44
41.76,39.3333
41.8,22
41.84,26
41.88,32.6667
41.92,19.3333
41.96,28.6667
42,26
42.04,22.6667
42.08,20.6667
42.12,13.3333
42.16,16
42.2,9.33333
42.24,6.66667
42.28,9.33333
42.32,9.33333
42.36,7.33333
42.4,9.33333
42.44,4
42.48,7.33333
42.52,8.66667
42.56,5.33333
42.6,5.33333
42.64,6.66667
42.68,8
42.72,5.33333
42.76,6
42.8,5.33333
42.84,4
42.88,7.33333
42.92,7.33333
42.96,2.66667
43,5.33333
43.04,4.66667
43.08,5.33333
43.12,7.33333
43.16,6
43.2,6
43.24,6.66667
43.28,6.66667
43.32,5.33333
43.36,7.33333
43.4,2.66667
43.44,6
43.48,5.33333
43.52,6
43.56,4
43.6,8
43.64,8.66667
43.68,8.66667
43.72,10.6667
43.76,18.6667
43.8,21.3333
43.84,25.3333
43.88,31.3333
43.92,30.6667
43.96,34
44,35.3333
44.04,59.3333
44.08,115.333
44.12,168
44.16,180.667
44.2,131.333
44.24,106.667
44.28,96
44.32,45.3333
44.36,30
44.4,20
44.44,16.6667
44.48,12.6667
44.52,9.33333
44.56,8.66667
44.6,8.66667
44.64,8
44.68,6.66667
44.72,7.33333
44.76,4
44.8,4.66667
44.84,8.66667
44.88,6
44.92,7.33333
44.96,6
45,9.33333
45.04,10
45.08,10.6667
45.12,10
45.16,13.3333
45.2,18
45.24,22.6667
45.28,22.6667
45.32,26
45.36,15.3333
45.4,16
45.44,12
45.48,8.66667
45.52,6.66667
45.56,5.33333
45.6,8
45.64,6.66667
45.68,10
45.72,21.3333
45.76,16.6667
45.8,12.6667
45.84,10
45.88,16.6667
45.92,15.3333
45.96,14
46,12
46.04,14
46.08,10.6667
46.12,7.33333
46.16,6.66667
46.2,4.66667
46.24,7.33333
46.28,7.33333
46.32,7.33333
46.36,6
46.4,7.33333
46.44,8
46.48,5.33333
46.52,6.66667
46.56,8
46.6,11.3333
46.64,24
46.68,28.6667
46.72,28.6667
46.76,33.3333
46.8,24.6667
46.84,17.3333
46.88,16.6667
46.92,9.33333
46.96,11.3333
47,6.66667
47.04,7.33333
47.08,5.33333
47.12,4.66667
47.16,5.33333
47.2,5.33333
47.24,6
47.28,4
47.32,6.66667
47.36,5.33333
47.4,6
47.44,8
47.48,9.33333
47.52,14
47.56,11.3333
47.6,13.3333
47.64,9.33333
47.68,8
47.72,6.66667
47.76,6.66667
47.8,4
47.84,3.33333
47.88,5.33333
47.92,8
47.96,4
48,3.33333
48.04,6
48.08,6
48.12,6.66667
48.16,6
48.2,8
48.24,4
48.28,4
48.32,4
48.36,6.66667
48.4,6.66667
48.44,9.33333
48.48,8.66667
48.52,8.66667
48.56,10
48.6,12
48.64,18
48.68,19.3333
48.72,21.3333
48.76,20.6667
48.8,21.3333
48.84,13.3333
48.88,16.6667
48.92,10.6667
48.96,8
49,3.33333
49.04,11.3333
49.08,9.33333
49.12,5.33333
49.16,15.3333
49.2,21.3333
49.24,29.3333
49.28,33.3333
49.32,46
49.36,35.3333
49.4,56.6667
49.44,54.6667
49.48,109.333
49.52,112.667
49.56,112
49.6,86.6667
49.64,70
49.68,51.3333
49.72,49.3333
49.76,24
49.8,19.3333
49.84,12
49.88,7.33333
49.92,10.6667
49.96,8.66667
50,6
50.04,7.33333
50.08,8
50.12,21.3333
50.16,8
50.2,18
50.24,15.3333
50.28,18
50.32,16.6667
50.36,26
50.4,26.6667
50.44,30
50.48,21.3333
50.52,26
50.56,18.6667
50.6,21.3333
50.64,27.3333
50.68,35.3333
50.72,64
50.76,102.667
50.8,115.333
50.84,104
50.88,80.6667
50.92,64
50.96,65.3333
51,44
51.04,20.6667
51.08,32.6667
51.12,24
51.16,18.6667
51.2,16
51.24,17.3333
51.28,10.6667
51.32,12
51.36,8
51.4,7.33333
51.44,8.66667
51.48,6
51.52,6
51.56,6
51.6,7.33333
51.64,3.33333
51.68,3.33333
51.72,4.66667
51.76,6
51.8,6.66667
51.84,6
51.88,6.66667
51.92,3.33333
51.96,9.33333
52,7.33333
52.04,6.66667
52.08,7.33333
52.12,6
52.16,11.3333
52.2,11.3333
52.24,17.3333
52.28,24
52.32,30
52.36,23.3333
52.4,12.6667
52.44,14
52.48,7.33333
52.52,14
52.56,9.33333
52.6,5.33333
52.64,6
52.68,6
52.72,6
52.76,6
52.8,6
52.84,7.33333
52.88,8.66667
52.92,5.33333
52.96,6.66667
53,7.33333
53.04,8
53.08,8
53.12,8
53.16,9.33333
53.2,10.6667
53.24,19.3333
53.28,19.3333
53.32,30.6667
53.36,26
53.4,23.3333
53.44,19.3333
53.48,24.6667
53.52,22
53.56,21.3333
53.6,21.3333
53.64,19.3333
53.68,27.3333
53.72,28.6667
53.76,30.6667
53.8,27.3333
53.84,32.6667
53.88,70.6667
53.92,128
53.96,180
54,206.667
54.04,162.667
54.08,118
54.12,134.667
54.16,131.333
54.2,89.3333
54.24,57.3333
54.28,32.6667
54.32,30.6667
54.36,27.3333
54.4,25.3333
54.44,16.6667
54.48,11.3333
54.52,9.33333
54.56,11.3333
54.6,6.66667
54.64,6
54.68,10.6667
54.72,8
54.76,11.3333
54.8,10.6667
54.84,12
54.88,16.6667
54.92,26
54.96,26.6667
55,17.3333
55.04,16.6667
55.08,18
55.12,14.6667
55.16,8.66667
55.2,6
55.24,9.33333
55.28,9.33333
55.32,11.3333
55.36,10
55.4,11.3333
55.44,16.6667
55.48,8.66667
55.52,16.6667
55.56,12.6667
55.6,31.3333
55.64,28
55.68,68
55.72,107.333
55.76,143.333
55.8,121.333
55.84,98.6667
55.88,94
55.92,91.3333
55.96,72
56,38.6667
56.04,26
56.08,22
56.12,12.6667
56.16,14.6667
56.2,7.33333
56.24,10
56.28,8
56.32,8.66667
56.36,9.33333
56.4,10
56.44,10
56.48,10.6667
56.52,9.33333
56.56,9.33333
56.6,10.6667
56.64,13.3333
56.68,18
56.72,24
56.76,27.3333
56.8,23.3333
56.84,20
56.88,22
56.92,17.3333
56.96,14.6667
57,9.33333
57.04,6.66667
57.08,8.66667
57.12,12
57.16,9.33333
57.2,10.6667
57.24,12.6667
57.28,10.6667
57.32,6.66667
57.36,9.33333
57.4,6.66667
57.44,5.33333
57.48,5.33333
57.52,6.66667
57.56,9.33333
57.6,12
57.64,4
57.68,7.33333
57.72,5.33333
57.76,6.66667
57.8,6.66667
57.84,12
57.88,19.3333
57.92,20.6667
57.96,13.3333
58,26.6667
58.04,16
58.08,18.6667
58.12,17.3333
58.16,26
58.2,21.3333
58.24,22.6667
58.28,18
58.32,24.6667
58.36,46
58.4,90
58.44,190.667
58.48,282
58.52,326.667
58.56,264
58.6,174
58.64,177.333
58.68,202
58.72,127.333
58.76,70.6667
58.8,32
58.84,32.6667
58.88,28
58.92,15.3333
58.96,17.3333
59,10
59.04,14
59.08,6.66667
59.12,11.3333
59.16,7.33333
59.2,12
59.24,5.33333
59.28,6.66667
59.32,8
59.36,12
59.4,6.66667
59.44,11.3333
59.48,6
59.52,9.33333
59.56,8
59.6,18.6667
59.64,18
59.68,19.3333
59.72,19.3333
59.76,19.3333
59.8,18
59.84,26.6667
59.88,14.6667
59.92,15.3333
59.96,9.33333
60,17.3333