File: XRD_graph/XRD_data/Li2ZnSn3O8_XRD/Li2.5Zn0.8Ga0.2Sn3O8_1doyaki_20250127.txt
2theta,Intensity
10,6
10.04,6
10.08,6
10.12,7
10.16,10
10.2,5
10.24,7
10.28,2
10.32,7
10.36,7
10.4,9
10.44,6
10.48,7
10.52,5
10.56,5
10.6,7
10.64,7
10.68,1
10.72,10
10.76,7
10.8,9
10.84,5
10.88,9
10.92,10
10.96,4
11,6
11.04,9
11.08,7
11.12,5
11.16,4
11.2,6
11.24,10
11.28,5
11.32,6
11.36,7
11.4,3
11.44,6
11.48,6
11.52,3
11.56,4
11.6,6
11.64,4
11.68,6
11.72,5
11.76,5
11.8,8
11.84,6
11.88,3
11.92,4
11.96,6
12,4
12.04,7
12.08,5
12.12,5
12.16,4
12.2,6
12.24,7
12.28,8
12.32,10
12.36,9
12.4,8
12.44,9
12.48,7
12.52,7
12.56,7
12.6,11
12.64,7
12.68,8
12.72,6
12.76,10
12.8,11
12.84,6
12.88,7
12.92,10
12.96,11
13,10
13.04,12
13.08,12
13.12,19
13.16,29
13.2,26
13.24,25
13.28,21
13.32,16
13.36,8
13.4,7
13.44,8
13.48,7
13.52,12
13.56,8
13.6,5
13.64,4
13.68,9
13.72,7
13.76,7
13.8,5
13.84,7
13.88,7
13.92,6
13.96,5
14,5
14.04,8
14.08,7
14.12,8
14.16,6
14.2,12
14.24,6
14.28,5
14.32,7
14.36,6
14.4,5
14.44,7
14.48,6
14.52,8
14.56,7
14.6,6
14.64,5
14.68,13
14.72,8
14.76,7
14.8,6
14.84,7
14.88,8
14.92,6
14.96,11
15,8
15.04,8
15.08,5
15.12,12
15.16,4
15.2,8
15.24,3
15.28,10
15.32,8
15.36,6
15.4,2
15.44,3
15.48,10
15.52,10
15.56,6
15.6,4
15.64,10
15.68,8
15.72,10
15.76,4
15.8,11
15.84,13
15.88,10
15.92,11
15.96,11
16,12
16.04,12
16.08,9
16.12,12
16.16,10
16.2,6
16.24,9
16.28,9
16.32,12
16.36,8
16.4,11
16.44,9
16.48,14
16.52,13
16.56,16
16.6,15
16.64,20
16.68,18
16.72,28
16.76,36
16.8,53
16.84,54
16.88,62
16.92,57
16.96,33
17,18
17.04,11
17.08,10
17.12,12
17.16,14
17.2,14
17.24,16
17.28,12
17.32,20
17.36,17
17.4,20
17.44,22
17.48,16
17.52,15
17.56,16
17.6,20
17.64,16
17.68,23
17.72,30
17.76,32
17.8,42
17.84,47
17.88,88
17.92,103
17.96,124
18,86
18.04,57
18.08,21
18.12,20
18.16,14
18.2,20
18.24,20
18.28,13
18.32,14
18.36,12
18.4,10
18.44,11
18.48,14
18.52,14
18.56,9
18.6,7
18.64,14
18.68,16
18.72,11
18.76,14
18.8,19
18.84,24
18.88,27
18.92,54
18.96,61
19,105
19.04,163
19.08,249
19.12,307
19.16,302
19.2,216
19.24,99
19.28,55
19.32,36
19.36,62
19.4,87
19.44,132
19.48,156
19.52,198
19.56,144
19.6,85
19.64,35
19.68,23
19.72,14
19.76,19
19.8,14
19.84,12
19.88,13
19.92,12
19.96,9
20,10
20.04,13
20.08,12
20.12,13
20.16,12
20.2,12
20.24,12
20.28,17
20.32,12
20.36,25
20.4,32
20.44,44
20.48,34
20.52,24
20.56,22
20.6,13
20.64,7
20.68,13
20.72,13
20.76,16
20.8,10
20.84,9
20.88,7
20.92,6
20.96,9
21,8
21.04,12
21.08,10
21.12,17
21.16,13
21.2,17
21.24,26
21.28,36
21.32,54
21.36,82
21.4,122
21.44,183
21.48,223
21.52,244
21.56,191
21.6,100
21.64,64
21.68,33
21.72,25
21.76,21
21.8,19
21.84,12
21.88,12
21.92,10
21.96,9
22,10
22.04,9
22.08,9
22.12,12
22.16,9
22.2,8
22.24,10
22.28,9
22.32,13
22.36,10
22.4,11
22.44,12
22.48,5
22.52,8
22.56,8
22.6,9
22.64,5
22.68,4
22.72,4
22.76,8
22.8,9
22.84,5
22.88,5
22.92,9
22.96,9
23,3
23.04,8
23.08,5
23.12,6
23.16,7
23.2,3
23.24,6
23.28,11
23.32,6
23.36,7
23.4,5
23.44,10
23.48,6
23.52,10
23.56,5
23.6,8
23.64,4
23.68,7
23.72,7
23.76,7
23.8,3
23.84,4
23.88,9
23.92,8
23.96,9
24,5
24.04,8
24.08,14
24.12,9
24.16,9
24.2,7
24.24,11
24.28,10
24.32,15
24.36,15
24.4,20
24.44,25
24.48,28
24.52,47
24.56,58
24.6,90
24.64,159
24.68,268
24.72,389
24.76,373
24.8,308
24.84,186
24.88,78
24.92,38
24.96,24
25,27
25.04,20
25.08,17
25.12,19
25.16,10
25.2,18
25.24,10
25.28,9
25.32,12
25.36,21
25.4,12
25.44,13
25.48,6
25.52,15
25.56,11
25.6,8
25.64,9
25.68,17
25.72,14
25.76,14
25.8,16
25.84,28
25.88,40
25.92,32
25.96,35
26,32
26.04,20
26.08,14
26.12,11
26.16,12
26.2,9
26.24,11
26.28,7
26.32,11
26.36,13
26.4,18
26.44,25
26.48,41
26.52,48
26.56,66
26.6,97
26.64,140
26.68,142
26.72,97
26.76,53
26.8,39
26.84,18
26.88,17
26.92,13
26.96,15
27,10
27.04,7
27.08,16
27.12,16
27.16,12
27.2,15
27.24,13
27.28,16
27.32,15
27.36,18
27.4,52
27.44,74
27.48,75
27.52,59
27.56,43
27.6,29
27.64,18
27.68,12
27.72,16
27.76,9
27.8,16
27.84,11
27.88,16
27.92,7
27.96,7
28,4
28.04,6
28.08,8
28.12,8
28.16,8
28.2,8
28.24,8
28.28,11
28.32,8
28.36,7
28.4,9
28.44,5
28.48,13
28.52,10
28.56,14
28.6,12
28.64,17
28.68,9
28.72,8
28.76,13
28.8,17
28.84,20
28.88,15
28.92,16
28.96,19
29,17
29.04,11
29.08,10
29.12,8
29.16,12
29.2,14
29.24,17
29.28,20
29.32,26
29.36,39
29.4,60
29.44,98
29.48,101
29.52,100
29.56,47
29.6,32
29.64,17
29.68,18
29.72,18
29.76,15
29.8,9
29.84,9
29.88,12
29.92,10
29.96,11
30,14
30.04,13
30.08,15
30.12,5
30.16,6
30.2,8
30.24,8
30.28,11
30.32,6
30.36,8
30.4,7
30.44,7
30.48,8
30.52,8
30.56,14
30.6,12
30.64,9
30.68,7
30.72,9
30.76,10
30.8,6
30.84,15
30.88,8
30.92,7
30.96,4
31,7
31.04,5
31.08,12
31.12,8
31.16,9
31.2,8
31.24,7
31.28,7
31.32,13
31.36,11
31.4,10
31.44,15
31.48,13
31.52,18
31.56,20
31.6,35
31.64,38
31.68,62
31.72,76
31.76,63
31.8,62
31.84,46
31.88,51
31.92,59
31.96,107
32,205
32.04,343
32.08,461
32.12,467
32.16,376
32.2,238
32.24,118
32.28,53
32.32,30
32.36,23
32.4,23
32.44,20
32.48,11
32.52,11
32.56,21
32.6,9
32.64,8
32.68,9
32.72,14
32.76,8
32.8,10
32.84,13
32.88,12
32.92,7
32.96,15
33,8
33.04,9
33.08,14
33.12,7
33.16,11
33.2,8
33.24,9
33.28,11
33.32,13
33.36,12
33.4,13
33.44,20
33.48,17
33.52,38
33.56,59
33.6,61
33.64,69
33.68,48
33.72,42
33.76,22
33.8,13
33.84,17
33.88,22
33.92,21
33.96,24
34,29
34.04,66
34.08,119
34.12,162
34.16,207
34.2,175
34.24,124
34.28,94
34.32,66
34.36,35
34.4,29
34.44,34
34.48,44
34.52,54
34.56,84
34.6,144
34.64,268
34.68,491
34.72,633
34.76,615
34.8,476
34.84,306
34.88,175
34.92,80
34.96,55
35,41
35.04,47
35.08,42
35.12,36
35.16,41
35.2,54
35.24,81
35.28,169
35.32,338
35.36,428
35.4,460
35.44,406
35.48,257
35.52,155
35.56,80
35.6,45
35.64,36
35.68,26
35.72,30
35.76,22
35.8,25
35.84,17
35.88,23
35.92,15
35.96,13
36,19
36.04,11
36.08,12
36.12,15
36.16,15
36.2,18
36.24,20
36.28,33
36.32,55
36.36,85
36.4,87
36.44,84
36.48,59
36.52,44
36.56,20
36.6,15
36.64,11
36.68,8
36.72,14
36.76,11
36.8,11
36.84,12
36.88,11
36.92,11
36.96,9
37,6
37.04,6
37.08,7
37.12,5
37.16,6
37.2,6
37.24,7
37.28,5
37.32,9
37.36,7
37.4,9
37.44,6
37.48,8
37.52,4
37.56,6
37.6,10
37.64,9
37.68,11
37.72,19
37.76,20
37.8,32
37.84,43
37.88,26
37.92,31
37.96,19
38,7
38.04,7
38.08,2
38.12,6
38.16,8
38.2,2
38.24,6
38.28,6
38.32,9
38.36,5
38.4,6
38.44,6
38.48,10
38.52,5
38.56,8
38.6,6
38.64,9
38.68,12
38.72,23
38.76,48
38.8,73
38.84,98
38.88,93
38.92,96
38.96,63
39,41
39.04,32
39.08,16
39.12,11
39.16,13
39.2,10
39.24,8
39.28,11
39.32,9
39.36,3
39.4,3
39.44,6
39.48,12
39.52,11
39.56,20
39.6,18
39.64,30
39.68,30
39.72,18
39.76,17
39.8,20
39.84,5
39.88,8
39.92,4
39.96,7
40,6
40.04,5
40.08,12
40.12,12
40.16,14
40.2,12
40.24,17
40.28,10
40.32,15
40.36,7
40.4,10
40.44,9
40.48,6
40.52,4
40.56,11
40.6,10
40.64,16
40.68,24
40.72,40
40.76,35
40.8,27
40.84,34
40.88,25
40.92,13
40.96,8
41,5
41.04,8
41.08,12
41.12,6
41.16,3
41.2,7
41.24,11
41.28,11
41.32,3
41.36,4
41.4,10
41.44,8
41.48,12
41.52,9
41.56,32
41.6,23
41.64,43
41.68,34
41.72,21
41.76,20
41.8,21
41.84,14
41.88,12
41.92,15
41.96,6
42,13
42.04,7
42.08,11
42.12,7
42.16,9
42.2,8
42.24,5
42.28,5
42.32,6
42.36,6
42.4,4
42.44,10
42.48,5
42.52,7
42.56,4
42.6,4
42.64,9
42.68,6
42.72,5
42.76,5
42.8,7
42.84,4
42.88,4
42.92,4
42.96,4
43,3
43.04,7
43.08,4
43.12,2
43.16,7
43.2,4
43.24,4
43.28,4
43.32,4
43.36,6
43.4,6
43.44,3
43.48,6
43.52,7
43.56,5
43.6,9
43.64,8
43.68,11
43.72,13
43.76,22
43.8,29
43.84,46
43.88,38
43.92,35
43.96,28
44,48
44.04,94
44.08,149
44.12,195
44.16,175
44.2,149
44.24,122
44.28,82
44.32,49
44.36,24
44.4,18
44.44,15
44.48,9
44.52,10
44.56,12
44.6,7
44.64,7
44.68,5
44.72,6
44.76,5
44.8,7
44.84,6
44.88,4
44.92,6
44.96,5
45,5
45.04,8
45.08,7
45.12,12
45.16,12
45.2,18
45.24,27
45.28,23
45.32,24
45.36,22
45.4,18
45.44,11
45.48,10
45.52,7
45.56,4
45.6,4
45.64,9
45.68,16
45.72,12
45.76,15
45.8,8
45.84,12
45.88,11
45.92,9
45.96,9
46,7
46.04,7
46.08,7
46.12,7
46.16,3
46.2,6
46.24,6
46.28,4
46.32,10
46.36,6
46.4,5
46.44,9
46.48,8
46.52,8
46.56,12
46.6,13
46.64,24
46.68,28
46.72,28
46.76,16
46.8,24
46.84,17
46.88,9
46.92,8
46.96,7
47,5
47.04,9
47.08,6
47.12,7
47.16,6
47.2,6
47.24,6
47.28,7
47.32,5
47.36,11
47.4,8
47.44,11
47.48,12
47.52,12
47.56,13
47.6,10
47.64,11
47.68,11
47.72,9
47.76,7
47.8,6
47.84,4
47.88,6
47.92,7
47.96,1
48,9
48.04,7
48.08,3
48.12,5
48.16,7
48.2,5
48.24,4
48.28,9
48.32,5
48.36,11
48.4,6
48.44,8
48.48,6
48.52,7
48.56,14
48.6,14
48.64,32
48.68,23
48.72,30
48.76,19
48.8,24
48.84,13
48.88,14
48.92,9
48.96,9
49,8
49.04,9
49.08,7
49.12,8
49.16,7
49.2,19
49.24,36
49.28,30
49.32,49
49.36,44
49.4,57
49.44,87
49.48,99
49.52,106
49.56,104
49.6,80
49.64,72
49.68,50
49.72,35
49.76,19
49.8,16
49.84,15
49.88,13
49.92,10
49.96,9
50,6
50.04,13
50.08,11
50.12,13
50.16,17
50.2,19
50.24,16
50.28,23
50.32,22
50.36,21
50.4,27
50.44,27
50.48,21
50.52,28
50.56,26
50.6,27
50.64,26
50.68,42
50.72,78
50.76,115
50.8,115
50.84,109
50.88,93
50.92,73
50.96,57
51,46
51.04,37
51.08,19
51.12,24
51.16,20
51.2,17
51.24,16
51.28,12
51.32,7
51.36,8
51.4,7
51.44,7
51.48,6
51.52,5
51.56,9
51.6,6
51.64,4
51.68,4
51.72,7
51.76,8
51.8,6
51.84,8
51.88,6
51.92,4
51.96,10
52,5
52.04,3
52.08,6
52.12,6
52.16,10
52.2,14
52.24,24
52.28,23
52.32,19
52.36,16
52.4,20
52.44,14
52.48,11
52.52,7
52.56,9
52.6,5
52.64,9
52.68,5
52.72,7
52.76,4
52.8,4
52.84,5
52.88,3
52.92,7
52.96,6
53,7
53.04,9
53.08,6
53.12,7
53.16,3
53.2,11
53.24,18
53.28,22
53.32,30
53.36,22
53.4,20
53.44,18
53.48,24
53.52,22
53.56,20
53.6,22
53.64,20
53.68,26
53.72,24
53.76,30
53.8,34
53.84,50
53.88,106
53.92,163
53.96,228
54,180
54.04,158
54.08,124
54.12,135
54.16,99
54.2,77
54.24,51
54.28,42
54.32,34
54.36,25
54.4,14
54.44,15
54.48,10
54.52,14
54.56,12
54.6,12
54.64,10
54.68,9
54.72,11
54.76,18
54.8,14
54.84,16
54.88,19
54.92,25
54.96,18
55,18
55.04,21
55.08,14
55.12,15
55.16,17
55.2,11
55.24,6
55.28,8
55.32,7
55.36,8
55.4,12
55.44,15
55.48,8
55.52,13
55.56,13
55.6,29
55.64,38
55.68,81
55.72,121
55.76,125
55.8,123
55.84,85
55.88,89
55.92,86
55.96,56
56,36
56.04,21
56.08,17
56.12,14
56.16,13
56.2,8
56.24,10
56.28,13
56.32,8
56.36,13
56.4,7
56.44,5
56.48,6
56.52,9
56.56,9
56.6,12
56.64,11
56.68,20
56.72,27
56.76,31
56.8,26
56.84,17
56.88,12
56.92,15
56.96,9
57,9
57.04,6
57.08,11
57.12,9
57.16,9
57.2,12
57.24,12
57.28,12
57.32,11
57.36,8
57.4,6
57.44,1
57.48,3
57.52,7
57.56,9
57.6,7
57.64,9
57.68,7
57.72,11
57.76,12
57.8,14
57.84,7
57.88,15
57.92,12
57.96,24
58,12
58.04,20
58.08,19
58.12,23
58.16,24
58.2,18
58.24,23
58.28,30
58.32,23
58.36,61
58.4,103
58.44,213
58.48,313
58.52,296
58.56,237
58.6,189
58.64,189
58.68,207
58.72,123
58.76,64
58.8,46
58.84,33
58.88,21
58.92,18
58.96,13
59,12
59.04,13
59.08,14
59.12,15
59.16,6
59.2,11
59.24,5
59.28,6
59.32,9
59.36,9
59.4,9
59.44,15
59.48,12
59.52,11
59.56,14
59.6,11
59.64,15
59.68,15
59.72,28
59.76,21
59.8,13
59.84,13
59.88,19
59.92,16
59.96,10
60,22