File: XRD_graph/XRD_data/Li2ZnSn3O8_XRD/Li2.5Zn0.8Ga0.2Sn3O8_Ar2ndyaki_20241122.txt
2theta,Intensity
10,5.33333
10.04,7.33333
10.08,5.33333
10.12,5.33333
10.16,6
10.2,4
10.24,6
10.28,8.66667
10.32,6
10.36,5.33333
10.4,6
10.44,5.33333
10.48,4.66667
10.52,6
10.56,6
10.6,6
10.64,6.66667
10.68,9.33333
10.72,8
10.76,7.33333
10.8,4.66667
10.84,6.66667
10.88,9.33333
10.92,4
10.96,8.66667
11,5.33333
11.04,6
11.08,6.66667
11.12,6.66667
11.16,8.66667
11.2,6
11.24,6
11.28,5.33333
11.32,5.33333
11.36,4.66667
11.4,4
11.44,8
11.48,6
11.52,4
11.56,6
11.6,7.33333
11.64,3.33333
11.68,7.33333
11.72,7.33333
11.76,8.66667
11.8,5.33333
11.84,4.66667
11.88,3.33333
11.92,8.66667
11.96,7.33333
12,4.66667
12.04,5.33333
12.08,9.33333
12.12,9.33333
12.16,7.33333
12.2,6
12.24,10
12.28,8
12.32,7.33333
12.36,8
12.4,8.66667
12.44,7.33333
12.48,5.33333
12.52,12.6667
12.56,8
12.6,8.66667
12.64,7.33333
12.68,10
12.72,10
12.76,8.66667
12.8,4.66667
12.84,9.33333
12.88,8
12.92,10
12.96,9.33333
13,10.6667
13.04,15.3333
13.08,24.6667
13.12,26.6667
13.16,32
13.2,35.3333
13.24,24
13.28,14.6667
13.32,7.33333
13.36,10.6667
13.4,5.33333
13.44,6.66667
13.48,6
13.52,9.33333
13.56,8
13.6,10.6667
13.64,11.3333
13.68,3.33333
13.72,8.66667
13.76,10
13.8,9.33333
13.84,7.33333
13.88,4
13.92,3.33333
13.96,9.33333
14,6.66667
14.04,5.33333
14.08,7.33333
14.12,6.66667
14.16,8.66667
14.2,4.66667
14.24,5.33333
14.28,9.33333
14.32,8.66667
14.36,8.66667
14.4,3.33333
14.44,8.66667
14.48,3.33333
14.52,5.33333
14.56,3.33333
14.6,2.66667
14.64,8.66667
14.68,6.66667
14.72,2
14.76,8
14.8,8.66667
14.84,11.3333
14.88,5.33333
14.92,7.33333
14.96,7.33333
15,10.6667
15.04,8.66667
15.08,9.33333
15.12,5.33333
15.16,7.33333
15.2,4.66667
15.24,4.66667
15.28,7.33333
15.32,4
15.36,5.33333
15.4,11.3333
15.44,5.33333
15.48,4
15.52,6
15.56,7.33333
15.6,4.66667
15.64,4.66667
15.68,8
15.72,10.6667
15.76,6.66667
15.8,10
15.84,8
15.88,8
15.92,11.3333
15.96,10.6667
16,10
16.04,11.3333
16.08,13.3333
16.12,14.6667
16.16,8.66667
16.2,12
16.24,4.66667
16.28,12
16.32,8
16.36,11.3333
16.4,12
16.44,12.6667
16.48,12
16.52,13.3333
16.56,14.6667
16.6,13.3333
16.64,14
16.68,24.6667
16.72,34
16.76,50.6667
16.8,59.3333
16.84,66
16.88,72
16.92,36
16.96,20.6667
17,12.6667
17.04,12.6667
17.08,16
17.12,14
17.16,14
17.2,17.3333
17.24,14
17.28,19.3333
17.32,14
17.36,14.6667
17.4,22
17.44,14.6667
17.48,16
17.52,16.6667
17.56,17.3333
17.6,21.3333
17.64,22.6667
17.68,33.3333
17.72,44.6667
17.76,42.6667
17.8,69.3333
17.84,100.667
17.88,117.333
17.92,124
17.96,94.6667
18,63.3333
18.04,39.3333
18.08,27.3333
18.12,23.3333
18.16,16
18.2,14.6667
18.24,12
18.28,11.3333
18.32,15.3333
18.36,12.6667
18.4,8.66667
18.44,11.3333
18.48,10.6667
18.52,8
18.56,14.6667
18.6,11.3333
18.64,15.3333
18.68,14
18.72,13.3333
18.76,20
18.8,28
18.84,34.6667
18.88,44
18.92,65.3333
18.96,110
19,154
19.04,246.667
19.08,280
19.12,286.667
19.16,212
19.2,112
19.24,58
19.28,56
19.32,68.6667
19.36,89.3333
19.4,128.667
19.44,155.333
19.48,171.333
19.52,160.667
19.56,92
19.6,46
19.64,28.6667
19.68,24
19.72,18
19.76,16.6667
19.8,12
19.84,17.3333
19.88,16.6667
19.92,12.6667
19.96,14
20,15.3333
20.04,18
20.08,12
20.12,14.6667
20.16,13.3333
20.2,14.6667
20.24,16
20.28,18
20.32,24.6667
20.36,26
20.4,34.6667
20.44,38
20.48,28
20.52,25.3333
20.56,14
20.6,12
20.64,10
20.68,12
20.72,10.6667
20.76,10.6667
20.8,12.6667
20.84,14
20.88,8
20.92,11.3333
20.96,14
21,9.33333
21.04,13.3333
21.08,11.3333
21.12,18
21.16,20.6667
21.2,24
21.24,42
21.28,44.6667
21.32,78
21.36,113.333
21.4,174.667
21.44,220
21.48,253.333
21.52,208
21.56,122
21.6,57.3333
21.64,29.3333
21.68,25.3333
21.72,21.3333
21.76,22
21.8,16.6667
21.84,14.6667
21.88,13.3333
21.92,14
21.96,13.3333
22,11.3333
22.04,11.3333
22.08,10
22.12,10.6667
22.16,12.6667
22.2,11.3333
22.24,7.33333
22.28,10
22.32,6
22.36,10.6667
22.4,8.66667
22.44,11.3333
22.48,9.33333
22.52,10
22.56,14
22.6,10.6667
22.64,10
22.68,8
22.72,5.33333
22.76,8
22.8,8.66667
22.84,8
22.88,6.66667
22.92,8.66667
22.96,8
23,9.33333
23.04,4.66667
23.08,8.66667
23.12,4.66667
23.16,6
23.2,4.66667
23.24,10.6667
23.28,8
23.32,10
23.36,9.33333
23.4,9.33333
23.44,3.33333
23.48,8
23.52,9.33333
23.56,4
23.6,4.66667
23.64,6.66667
23.68,6.66667
23.72,7.33333
23.76,5.33333
23.8,10
23.84,13.3333
23.88,8
23.92,9.33333
23.96,10
24,6.66667
24.04,11.3333
24.08,8
24.12,10
24.16,10.6667
24.2,11.3333
24.24,10.6667
24.28,10.6667
24.32,16
24.36,26.6667
24.4,24.6667
24.44,28
24.48,32
24.52,74.6667
24.56,102
24.6,178.667
24.64,264
24.68,361.333
24.72,424.667
24.76,333.333
24.8,179.333
24.84,92.6667
24.88,40
24.92,23.3333
24.96,24.6667
25,20.6667
25.04,14.6667
25.08,13.3333
25.12,14
25.16,15.3333
25.2,6.66667
25.24,13.3333
25.28,14
25.32,9.33333
25.36,10.6667
25.4,12
25.44,12
25.48,10
25.52,11.3333
25.56,10.6667
25.6,12.6667
25.64,14
25.68,12
25.72,14.6667
25.76,19.3333
25.8,28
25.84,33.3333
25.88,42.6667
25.92,39.3333
25.96,28
26,22.6667
26.04,16
26.08,8
26.12,10
26.16,9.33333
26.2,15.3333
26.24,13.3333
26.28,8
26.32,16.6667
26.36,15.3333
26.4,26.6667
26.44,36
26.48,43.3333
26.52,82
26.56,100.667
26.6,138
26.64,128.667
26.68,100
26.72,60.6667
26.76,33.3333
26.8,19.3333
26.84,19.3333
26.88,14
26.92,13.3333
26.96,12.6667
27,12
27.04,9.33333
27.08,11.3333
27.12,12.6667
27.16,11.3333
27.2,12.6667
27.24,18
27.28,18
27.32,25.3333
27.36,39.3333
27.4,54.6667
27.44,68.6667
27.48,58
27.52,45.3333
27.56,22
27.6,8
27.64,13.3333
27.68,13.3333
27.72,10
27.76,10.6667
27.8,10.6667
27.84,6.66667
27.88,9.33333
27.92,12
27.96,14.6667
28,10.6667
28.04,10
28.08,4
28.12,8.66667
28.16,5.33333
28.2,4.66667
28.24,9.33333
28.28,12
28.32,9.33333
28.36,12.6667
28.4,8.66667
28.44,3.33333
28.48,8.66667
28.52,8
28.56,13.3333
28.6,8
28.64,8.66667
28.68,12
28.72,14
28.76,20
28.8,15.3333
28.84,22
28.88,8
28.92,17.3333
28.96,12
29,13.3333
29.04,11.3333
29.08,9.33333
29.12,10
29.16,17.3333
29.2,16
29.24,13.3333
29.28,29.3333
29.32,40.6667
29.36,62
29.4,94
29.44,94
29.48,80.6667
29.52,60.6667
29.56,37.3333
29.6,17.3333
29.64,14
29.68,8.66667
29.72,7.33333
29.76,12
29.8,9.33333
29.84,4.66667
29.88,16
29.92,11.3333
29.96,5.33333
30,7.33333
30.04,9.33333
30.08,10
30.12,8.66667
30.16,10
30.2,12
30.24,9.33333
30.28,10.6667
30.32,8.66667
30.36,12.6667
30.4,8.66667
30.44,11.3333
30.48,9.33333
30.52,7.33333
30.56,6.66667
30.6,8
30.64,6.66667
30.68,8
30.72,6.66667
30.76,10
30.8,6
30.84,7.33333
30.88,6.66667
30.92,4
30.96,10
31,7.33333
31.04,8.66667
31.08,8.66667
31.12,10.6667
31.16,8
31.2,9.33333
31.24,7.33333
31.28,11.3333
31.32,8
31.36,12.6667
31.4,14.6667
31.44,17.3333
31.48,18.6667
31.52,21.3333
31.56,32
31.6,49.3333
31.64,67.3333
31.68,81.3333
31.72,76
31.76,62
31.8,51.3333
31.84,52
31.88,64
31.92,116.667
31.96,210.667
32,342.667
32.04,455.333
32.08,462
32.12,351.333
32.16,222
32.2,116
32.24,54.6667
32.28,29.3333
32.32,26.6667
32.36,21.3333
32.4,18
32.44,17.3333
32.48,9.33333
32.52,8
32.56,11.3333
32.6,11.3333
32.64,11.3333
32.68,10.6667
32.72,10.6667
32.76,10.6667
32.8,6.66667
32.84,6
32.88,6.66667
32.92,14
32.96,12
33,8
33.04,10
33.08,10
33.12,12
33.16,8.66667
33.2,10.6667
33.24,14
33.28,10.6667
33.32,11.3333
33.36,10
33.4,14.6667
33.44,22.6667
33.48,36.6667
33.52,49.3333
33.56,53.3333
33.6,67.3333
33.64,49.3333
33.68,36.6667
33.72,24
33.76,22.6667
33.8,17.3333
33.84,14.6667
33.88,18
33.92,24
33.96,40
34,60.6667
34.04,94
34.08,159.333
34.12,200
34.16,189.333
34.2,127.333
34.24,96.6667
34.28,58.6667
34.32,44
34.36,42.6667
34.4,48.6667
34.44,40.6667
34.48,52
34.52,83.3333
34.56,144
34.6,266
34.64,468
34.68,602
34.72,617.333
34.76,488
34.8,317.333
34.84,182
34.88,83.3333
34.92,44.6667
34.96,37.3333
35,40.6667
35.04,37.3333
35.08,40
35.12,42.6667
35.16,52
35.2,86
35.24,157.333
35.28,290
35.32,416
35.36,452
35.4,400.667
35.44,274.667
35.48,176
35.52,77.3333
35.56,46.6667
35.6,33.3333
35.64,32
35.68,20.6667
35.72,16
35.76,19.3333
35.8,18
35.84,17.3333
35.88,13.3333
35.92,14
35.96,15.3333
36,16.6667
36.04,17.3333
36.08,14
36.12,16.6667
36.16,18.6667
36.2,29.3333
36.24,37.3333
36.28,54
36.32,82
36.36,85.3333
36.4,77.3333
36.44,50.6667
36.48,44.6667
36.52,22.6667
36.56,14.6667
36.6,14.6667
36.64,10
36.68,16
36.72,16
36.76,14
36.8,14.6667
36.84,10
36.88,8
36.92,8.66667
36.96,10.6667
37,5.33333
37.04,5.33333
37.08,4.66667
37.12,8
37.16,8
37.2,6.66667
37.24,6
37.28,7.33333
37.32,8
37.36,6
37.4,5.33333
37.44,8
37.48,6
37.52,6
37.56,8
37.6,8
37.64,9.33333
37.68,17.3333
37.72,20
37.76,25.3333
37.8,32
37.84,23.3333
37.88,24
37.92,16.6667
37.96,13.3333
38,6
38.04,6.66667
38.08,4.66667
38.12,6.66667
38.16,7.33333
38.2,5.33333
38.24,4
38.28,4.66667
38.32,5.33333
38.36,6.66667
38.4,6.66667
38.44,10.6667
38.48,6
38.52,7.33333
38.56,9.33333
38.6,8
38.64,23.3333
38.68,22
38.72,36.6667
38.76,64.6667
38.8,94
38.84,103.333
38.88,89.3333
38.92,62.6667
38.96,41.3333
39,22.6667
39.04,14
39.08,7.33333
39.12,12.6667
39.16,8.66667
39.2,5.33333
39.24,7.33333
39.28,9.33333
39.32,6.66667
39.36,8
39.4,7.33333
39.44,12
39.48,15.3333
39.52,16.6667
39.56,16.6667
39.6,30
39.64,34.6667
39.68,24
39.72,23.3333
39.76,14.6667
39.8,16.6667
39.84,8
39.88,6.66667
39.92,10
39.96,7.33333
40,9.33333
40.04,10.6667
40.08,6
40.12,10
40.16,10
40.2,11.3333
40.24,5.33333
40.28,10.6667
40.32,7.33333
40.36,8
40.4,6.66667
40.44,7.33333
40.48,8
40.52,11.3333
40.56,10.6667
40.6,25.3333
40.64,33.3333
40.68,38
40.72,41.3333
40.76,42
40.8,24.6667
40.84,23.3333
40.88,16.6667
40.92,8.66667
40.96,8
41,7.33333
41.04,6
41.08,4.66667
41.12,10.6667
41.16,4.66667
41.2,5.33333
41.24,7.33333
41.28,6.66667
41.32,14.6667
41.36,8.66667
41.4,11.3333
41.44,12.6667
41.48,27.3333
41.52,26
41.56,35.3333
41.6,42
41.64,39.3333
41.68,30.6667
41.72,24.6667
41.76,22
41.8,20.6667
41.84,16
41.88,23.3333
41.92,18.6667
41.96,19.3333
42,20
42.04,9.33333
42.08,9.33333
42.12,6
42.16,8.66667
42.2,4
42.24,8
42.28,3.33333
42.32,7.33333
42.36,7.33333
42.4,6.66667
42.44,4
42.48,7.33333
42.52,4
42.56,4.66667
42.6,6
42.64,6
42.68,7.33333
42.72,5.33333
42.76,5.33333
42.8,4.66667
42.84,6
42.88,4
42.92,5.33333
42.96,4.66667
43,6
43.04,4.66667
43.08,4.66667
43.12,6
43.16,6.66667
43.2,3.33333
43.24,3.33333
43.28,5.33333
43.32,3.33333
43.36,8
43.4,3.33333
43.44,5.33333
43.48,5.33333
43.52,5.33333
43.56,4.66667
43.6,8.66667
43.64,11.3333
43.68,10
43.72,18.6667
43.76,32
43.8,30
43.84,30.6667
43.88,28
43.92,41.3333
43.96,52.6667
44,80
44.04,148.667
44.08,196.667
44.12,196.667
44.16,157.333
44.2,124
44.24,82.6667
44.28,46.6667
44.32,26
44.36,18.6667
44.4,12
44.44,12
44.48,9.33333
44.52,9.33333
44.56,4.66667
44.6,8.66667
44.64,10
44.68,7.33333
44.72,6
44.76,5.33333
44.8,5.33333
44.84,6.66667
44.88,4.66667
44.92,6
44.96,7.33333
45,6
45.04,10
45.08,14.6667
45.12,14
45.16,17.3333
45.2,21.3333
45.24,20.6667
45.28,23.3333
45.32,15.3333
45.36,16
45.4,9.33333
45.44,9.33333
45.48,8
45.52,8
45.56,6.66667
45.6,8.66667
45.64,14.6667
45.68,14.6667
45.72,14.6667
45.76,15.3333
45.8,12
45.84,13.3333
45.88,10
45.92,12
45.96,9.33333
46,9.33333
46.04,7.33333
46.08,7.33333
46.12,8
46.16,6.66667
46.2,6
46.24,3.33333
46.28,9.33333
46.32,5.33333
46.36,6.66667
46.4,6.66667
46.44,4.66667
46.48,6
46.52,12.6667
46.56,9.33333
46.6,18
46.64,33.3333
46.68,36.6667
46.72,29.3333
46.76,24.6667
46.8,19.3333
46.84,14.6667
46.88,10
46.92,6.66667
46.96,7.33333
47,4
47.04,5.33333
47.08,7.33333
47.12,5.33333
47.16,5.33333
47.2,4
47.24,8
47.28,5.33333
47.32,8.66667
47.36,7.33333
47.4,10.6667
47.44,12
47.48,15.3333
47.52,7.33333
47.56,10
47.6,6.66667
47.64,6.66667
47.68,8
47.72,4.66667
47.76,4
47.8,4.66667
47.84,6
47.88,4.66667
47.92,4.66667
47.96,4.66667
48,3.33333
48.04,4.66667
48.08,6.66667
48.12,2
48.16,8
48.2,4.66667
48.24,5.33333
48.28,4.66667
48.32,4
48.36,5.33333
48.4,7.33333
48.44,4
48.48,9.33333
48.52,9.33333
48.56,14.6667
48.6,19.3333
48.64,22.6667
48.68,26.6667
48.72,22
48.76,22
48.8,14.6667
48.84,17.3333
48.88,11.3333
48.92,6.66667
48.96,7.33333
49,6.66667
49.04,6.66667
49.08,7.33333
49.12,14
49.16,22.6667
49.2,20.6667
49.24,36
49.28,40.6667
49.32,46.6667
49.36,52.6667
49.4,73.3333
49.44,104.667
49.48,106.667
49.52,115.333
49.56,88.6667
49.6,68
49.64,61.3333
49.68,37.3333
49.72,20
49.76,11.3333
49.8,12
49.84,6
49.88,8.66667
49.92,9.33333
49.96,7.33333
50,10.6667
50.04,8.66667
50.08,10.6667
50.12,13.3333
50.16,14.6667
50.2,15.3333
50.24,16.6667
50.28,20
50.32,28
50.36,29.3333
50.4,30
50.44,26
50.48,18
50.52,25.3333
50.56,20.6667
50.6,31.3333
50.64,49.3333
50.68,76
50.72,115.333
50.76,126.667
50.8,115.333
50.84,81.3333
50.88,79.3333
50.92,59.3333
50.96,38
51,24
51.04,25.3333
51.08,19.3333
51.12,19.3333
51.16,14
51.2,19.3333
51.24,12
51.28,8.66667
51.32,10.6667
51.36,7.33333
51.4,8
51.44,6.66667
51.48,6.66667
51.52,4
51.56,7.33333
51.6,6
51.64,6.66667
51.68,6.66667
51.72,4.66667
51.76,6
51.8,6.66667
51.84,5.33333
51.88,8
51.92,5.33333
51.96,8.66667
52,6.66667
52.04,4.66667
52.08,6
52.12,6.66667
52.16,12
52.2,20.6667
52.24,20.6667
52.28,26
52.32,17.3333
52.36,16.6667
52.4,14.6667
52.44,10.6667
52.48,7.33333
52.52,4.66667
52.56,6
52.6,6
52.64,5.33333
52.68,2.66667
52.72,4.66667
52.76,5.33333
52.8,6
52.84,4
52.88,6
52.92,4.66667
52.96,5.33333
53,6.66667
53.04,7.33333
53.08,8.66667
53.12,8.66667
53.16,8.66667
53.2,14
53.24,18.6667
53.28,18.6667
53.32,26
53.36,21.3333
53.4,16.6667
53.44,24
53.48,23.3333
53.52,21.3333
53.56,13.3333
53.6,20.6667
53.64,26
53.68,20.6667
53.72,28
53.76,34
53.8,46
53.84,83.3333
53.88,144
53.92,215.333
53.96,202
54,168
54.04,132
54.08,136.667
54.12,126.667
54.16,84
54.2,58.6667
54.24,40
54.28,36
54.32,28
54.36,20.6667
54.4,14
54.44,14.6667
54.48,8.66667
54.52,6.66667
54.56,7.33333
54.6,10
54.64,6.66667
54.68,10
54.72,12.6667
54.76,8
54.8,14.6667
54.84,18.6667
54.88,18.6667
54.92,20.6667
54.96,12.6667
55,21.3333
55.04,17.3333
55.08,12
55.12,12
55.16,6
55.2,7.33333
55.24,7.33333
55.28,7.33333
55.32,10
55.36,12
55.4,12
55.44,12
55.48,17.3333
55.52,16
55.56,25.3333
55.6,35.3333
55.64,69.3333
55.68,112
55.72,135.333
55.76,108.667
55.8,96.6667
55.84,95.3333
55.88,90.6667
55.92,55.3333
55.96,38
56,28.6667
56.04,20
56.08,16
56.12,10
56.16,10
56.2,10
56.24,10
56.28,8
56.32,8
56.36,10.6667
56.4,10.6667
56.44,12
56.48,9.33333
56.52,8
56.56,6
56.6,10.6667
56.64,23.3333
56.68,24.6667
56.72,22
56.76,26.6667
56.8,20
56.84,20.6667
56.88,17.3333
56.92,10.6667
56.96,8.66667
57,6.66667
57.04,10.6667
57.08,12
57.12,12
57.16,13.3333
57.2,13.3333
57.24,11.3333
57.28,11.3333
57.32,6.66667
57.36,5.33333
57.4,5.33333
57.44,8
57.48,6
57.52,6.66667
57.56,8.66667
57.6,5.33333
57.64,7.33333
57.68,10.6667
57.72,6.66667
57.76,8
57.8,14
57.84,14
57.88,16.6667
57.92,18.6667
57.96,20
58,18.6667
58.04,19.3333
58.08,20.6667
58.12,16
58.16,18.6667
58.2,16
58.24,18
58.28,36
58.32,66
58.36,105.333
58.4,191.333
58.44,284
58.48,330
58.52,245.333
58.56,191.333
58.6,195.333
58.64,185.333
58.68,134.667
58.72,62.6667
58.76,38
58.8,25.3333
58.84,29.3333
58.88,18
58.92,10.6667
58.96,11.3333
59,10.6667
59.04,7.33333
59.08,7.33333
59.12,11.3333
59.16,6
59.2,6.66667
59.24,8.66667
59.28,10
59.32,8.66667
59.36,12
59.4,8.66667
59.44,10.6667
59.48,8.66667
59.52,10
59.56,15.3333
59.6,14.6667
59.64,12
59.68,20.6667
59.72,18.6667
59.76,20
59.8,27.3333
59.84,18
59.88,18
59.92,13.3333
59.96,10.6667
60,3.33333