File: XRD_graph/XRD_data/Li2ZnSn3O8_XRD/Li2.5Zn0.5Ga0.5Sn3O8_1doyaki_20241211.txt
2theta,Intensity
10,6.66667
10.04,5.83333
10.08,8.33333
10.12,5
10.16,4.16667
10.2,4.16667
10.24,4.16667
10.28,4.16667
10.32,5
10.36,4.16667
10.4,5
10.44,2.5
10.48,4.16667
10.52,3.33333
10.56,6.66667
10.6,6.66667
10.64,3.33333
10.68,7.5
10.72,5
10.76,7.5
10.8,4.16667
10.84,6.66667
10.88,7.5
10.92,7.5
10.96,10
11,5
11.04,6.66667
11.08,5.83333
11.12,5.83333
11.16,5.83333
11.2,4.16667
11.24,4.16667
11.28,6.66667
11.32,6.66667
11.36,4.16667
11.4,4.16667
11.44,4.16667
11.48,5
11.52,5.83333
11.56,3.33333
11.6,7.5
11.64,4.16667
11.68,3.33333
11.72,4.16667
11.76,5
11.8,3.33333
11.84,9.16667
11.88,4.16667
11.92,8.33333
11.96,6.66667
12,2.5
12.04,6.66667
12.08,2.5
12.12,5.83333
12.16,2.5
12.2,6.66667
12.24,3.33333
12.28,6.66667
12.32,8.33333
12.36,4.16667
12.4,5
12.44,5.83333
12.48,6.66667
12.52,10.8333
12.56,5
12.6,7.5
12.64,8.33333
12.68,9.16667
12.72,14.1667
12.76,6.66667
12.8,9.16667
12.84,7.5
12.88,7.5
12.92,9.16667
12.96,9.16667
13,8.33333
13.04,10.8333
13.08,9.16667
13.12,15
13.16,12.5
13.2,16.6667
13.24,23.3333
13.28,20.8333
13.32,22.5
13.36,18.3333
13.4,10.8333
13.44,5
13.48,7.5
13.52,8.33333
13.56,7.5
13.6,8.33333
13.64,8.33333
13.68,10
13.72,8.33333
13.76,8.33333
13.8,3.33333
13.84,6.66667
13.88,8.33333
13.92,5
13.96,9.16667
14,7.5
14.04,6.66667
14.08,8.33333
14.12,7.5
14.16,5.83333
14.2,7.5
14.24,5
14.28,11.6667
14.32,3.33333
14.36,7.5
14.4,6.66667
14.44,4.16667
14.48,2.5
14.52,6.66667
14.56,5.83333
14.6,5
14.64,5
14.68,4.16667
14.72,5.83333
14.76,2.5
14.8,7.5
14.84,5.83333
14.88,6.66667
14.92,2.5
14.96,7.5
15,6.66667
15.04,2.5
15.08,10
15.12,7.5
15.16,8.33333
15.2,3.33333
15.24,5.83333
15.28,7.5
15.32,5.83333
15.36,6.66667
15.4,12.5
15.44,11.6667
15.48,5
15.52,6.66667
15.56,9.16667
15.6,5
15.64,7.5
15.68,5.83333
15.72,7.5
15.76,7.5
15.8,7.5
15.84,5.83333
15.88,4.16667
15.92,3.33333
15.96,6.66667
16,8.33333
16.04,11.6667
16.08,6.66667
16.12,13.3333
16.16,12.5
16.2,9.16667
16.24,6.66667
16.28,10.8333
16.32,10
16.36,10.8333
16.4,7.5
16.44,10.8333
16.48,6.66667
16.52,14.1667
16.56,10
16.6,10.8333
16.64,12.5
16.68,11.6667
16.72,15
16.76,15.8333
16.8,20.8333
16.84,26.6667
16.88,33.3333
16.92,48.3333
16.96,52.5
17,45
17.04,28.3333
17.08,23.3333
17.12,10.8333
17.16,15.8333
17.2,14.1667
17.24,15
17.28,7.5
17.32,20
17.36,12.5
17.4,15
17.44,11.6667
17.48,12.5
17.52,20
17.56,15.8333
17.6,15
17.64,20
17.68,15
17.72,20
17.76,20.8333
17.8,27.5
17.84,35.8333
17.88,45
17.92,72.5
17.96,85
18,101.667
18.04,83.3333
18.08,65.8333
18.12,38.3333
18.16,21.6667
18.2,14.1667
18.24,14.1667
18.28,14.1667
18.32,11.6667
18.36,15.8333
18.4,10.8333
18.44,10.8333
18.48,15
18.52,7.5
18.56,12.5
18.6,14.1667
18.64,12.5
18.68,14.1667
18.72,10
18.76,15
18.8,10.8333
18.84,10.8333
18.88,13.3333
18.92,20
18.96,25.8333
19,36.6667
19.04,69.1667
19.08,97.5
19.12,164.167
19.16,226.667
19.2,268.333
19.24,258.333
19.28,175
19.32,90
19.36,49.1667
19.4,46.6667
19.44,57.5
19.48,80
19.52,115
19.56,131.667
19.6,150
19.64,134.167
19.68,98.3333
19.72,40
19.76,20.8333
19.8,14.1667
19.84,15.8333
19.88,10
19.92,13.3333
19.96,10
20,13.3333
20.04,10.8333
20.08,8.33333
20.12,11.6667
20.16,9.16667
20.2,11.6667
20.24,11.6667
20.28,11.6667
20.32,10.8333
20.36,17.5
20.4,23.3333
20.44,43.3333
20.48,46.6667
20.52,35
20.56,35.8333
20.6,27.5
20.64,15
20.68,10.8333
20.72,9.16667
20.76,10
20.8,7.5
20.84,6.66667
20.88,6.66667
20.92,8.33333
20.96,8.33333
21,10.8333
21.04,10.8333
21.08,10.8333
21.12,12.5
21.16,12.5
21.2,9.16667
21.24,13.3333
21.28,14.1667
21.32,19.1667
21.36,22.5
21.4,42.5
21.44,62.5
21.48,90.8333
21.52,140
21.56,198.333
21.6,238.333
21.64,172.5
21.68,115.833
21.72,52.5
21.76,18.3333
21.8,15.8333
21.84,17.5
21.88,14.1667
21.92,8.33333
21.96,12.5
22,8.33333
22.04,8.33333
22.08,9.16667
22.12,8.33333
22.16,4.16667
22.2,4.16667
22.24,8.33333
22.28,6.66667
22.32,10.8333
22.36,7.5
22.4,6.66667
22.44,10
22.48,9.16667
22.52,8.33333
22.56,8.33333
22.6,8.33333
22.64,6.66667
22.68,10.8333
22.72,9.16667
22.76,11.6667
22.8,8.33333
22.84,7.5
22.88,8.33333
22.92,9.16667
22.96,6.66667
23,6.66667
23.04,7.5
23.08,5.83333
23.12,6.66667
23.16,7.5
23.2,7.5
23.24,5.83333
23.28,2.5
23.32,2.5
23.36,10.8333
23.4,4.16667
23.44,6.66667
23.48,7.5
23.52,6.66667
23.56,5
23.6,7.5
23.64,6.66667
23.68,5
23.72,9.16667
23.76,4.16667
23.8,7.5
23.84,7.5
23.88,3.33333
23.92,5
23.96,5.83333
24,6.66667
24.04,5
24.08,5
24.12,6.66667
24.16,8.33333
24.2,10
24.24,10.8333
24.28,10.8333
24.32,10
24.36,8.33333
24.4,9.16667
24.44,11.6667
24.48,19.1667
24.52,18.3333
24.56,21.6667
24.6,29.1667
24.64,40
24.68,82.5
24.72,151.667
24.76,221.667
24.8,310
24.84,339.167
24.88,268.333
24.92,145.833
24.96,75.8333
25,31.6667
25.04,22.5
25.08,24.1667
25.12,19.1667
25.16,17.5
25.2,17.5
25.24,14.1667
25.28,8.33333
25.32,13.3333
25.36,9.16667
25.4,9.16667
25.44,7.5
25.48,10.8333
25.52,7.5
25.56,9.16667
25.6,10
25.64,10.8333
25.68,11.6667
25.72,9.16667
25.76,10.8333
25.8,15.8333
25.84,15
25.88,13.3333
25.92,14.1667
25.96,26.6667
26,19.1667
26.04,25.8333
26.08,28.3333
26.12,16.6667
26.16,8.33333
26.2,16.6667
26.24,14.1667
26.28,14.1667
26.32,16.6667
26.36,14.1667
26.4,22.5
26.44,15.8333
26.48,31.6667
26.52,65.8333
26.56,107.5
26.6,114.167
26.64,145.833
26.68,145
26.72,129.167
26.76,112.5
26.8,80
26.84,50.8333
26.88,30
26.92,15.8333
26.96,15.8333
27,10
27.04,6.66667
27.08,7.5
27.12,10
27.16,15
27.2,7.5
27.24,8.33333
27.28,10
27.32,18.3333
27.36,11.6667
27.4,17.5
27.44,16.6667
27.48,19.1667
27.52,30.8333
27.56,52.5
27.6,61.6667
27.64,49.1667
27.68,27.5
27.72,16.6667
27.76,13.3333
27.8,15
27.84,10.8333
27.88,10
27.92,5.83333
27.96,5.83333
28,7.5
28.04,13.3333
28.08,6.66667
28.12,6.66667
28.16,7.5
28.2,10
28.24,7.5
28.28,4.16667
28.32,5
28.36,6.66667
28.4,7.5
28.44,10.8333
28.48,10
28.52,3.33333
28.56,9.16667
28.6,10.8333
28.64,13.3333
28.68,5.83333
28.72,6.66667
28.76,14.1667
28.8,13.3333
28.84,11.6667
28.88,17.5
28.92,30
28.96,23.3333
29,18.3333
29.04,9.16667
29.08,5.83333
29.12,11.6667
29.16,10.8333
29.2,12.5
29.24,8.33333
29.28,9.16667
29.32,14.1667
29.36,8.33333
29.4,14.1667
29.44,16.6667
29.48,38.3333
29.52,46.6667
29.56,68.3333
29.6,88.3333
29.64,72.5
29.68,38.3333
29.72,28.3333
29.76,17.5
29.8,12.5
29.84,10
29.88,13.3333
29.92,5.83333
29.96,9.16667
30,5.83333
30.04,8.33333
30.08,6.66667
30.12,9.16667
30.16,10
30.2,8.33333
30.24,8.33333
30.28,10
30.32,10.8333
30.36,10
30.4,8.33333
30.44,11.6667
30.48,7.5
30.52,6.66667
30.56,2.5
30.6,10
30.64,5
30.68,8.33333
30.72,8.33333
30.76,7.5
30.8,5.83333
30.84,9.16667
30.88,5
30.92,10
30.96,10
31,5.83333
31.04,7.5
31.08,6.66667
31.12,9.16667
31.16,10.8333
31.2,7.5
31.24,9.16667
31.28,8.33333
31.32,8.33333
31.36,10.8333
31.4,10.8333
31.44,11.6667
31.48,6.66667
31.52,6.66667
31.56,13.3333
31.6,12.5
31.64,14.1667
31.68,16.6667
31.72,35.8333
31.76,51.6667
31.8,62.5
31.84,90.8333
31.88,65.8333
31.92,60
31.96,51.6667
32,44.1667
32.04,83.3333
32.08,167.5
32.12,255
32.16,346.667
32.2,384.167
32.24,296.667
32.28,200.833
32.32,100.833
32.36,54.1667
32.4,27.5
32.44,30
32.48,19.1667
32.52,19.1667
32.56,18.3333
32.6,9.16667
32.64,15
32.68,10.8333
32.72,7.5
32.76,9.16667
32.8,9.16667
32.84,9.16667
32.88,9.16667
32.92,13.3333
32.96,6.66667
33,9.16667
33.04,8.33333
33.08,10.8333
33.12,8.33333
33.16,7.5
33.2,9.16667
33.24,10
33.28,12.5
33.32,11.6667
33.36,10
33.4,5
33.44,11.6667
33.48,10.8333
33.52,11.6667
33.56,16.6667
33.6,23.3333
33.64,30.8333
33.68,54.1667
33.72,56.6667
33.76,45.8333
33.8,60.8333
33.84,79.1667
33.88,89.1667
33.92,95.8333
33.96,86.6667
34,62.5
34.04,51.6667
34.08,33.3333
34.12,27.5
34.16,40
34.2,62.5
34.24,117.5
34.28,140
34.32,152.5
34.36,120.833
34.4,81.6667
34.44,50.8333
34.48,31.6667
34.52,30
34.56,30
34.6,36.6667
34.64,40
34.68,67.5
34.72,105
34.76,223.333
34.8,364.167
34.84,515.833
34.88,460
34.92,375.833
34.96,245
35,145
35.04,61.6667
35.08,41.6667
35.12,34.1667
35.16,35.8333
35.2,25.8333
35.24,29.1667
35.28,35.8333
35.32,40
35.36,61.6667
35.4,95
35.44,199.167
35.48,336.667
35.52,390.833
35.56,330.833
35.6,250
35.64,149.167
35.68,85
35.72,45.8333
35.76,30
35.8,21.6667
35.84,18.3333
35.88,20
35.92,15
35.96,11.6667
36,12.5
36.04,13.3333
36.08,15
36.12,14.1667
36.16,10.8333
36.2,6.66667
36.24,10.8333
36.28,15.8333
36.32,20.8333
36.36,42.5
36.4,52.5
36.44,88.3333
36.48,76.6667
36.52,64.1667
36.56,50
36.6,33.3333
36.64,19.1667
36.68,18.3333
36.72,11.6667
36.76,9.16667
36.8,13.3333
36.84,10.8333
36.88,9.16667
36.92,14.1667
36.96,12.5
37,8.33333
37.04,12.5
37.08,5
37.12,5.83333
37.16,6.66667
37.2,5.83333
37.24,5
37.28,10
37.32,5
37.36,5.83333
37.4,5.83333
37.44,7.5
37.48,4.16667
37.52,5.83333
37.56,5
37.6,5.83333
37.64,4.16667
37.68,8.33333
37.72,10.8333
37.76,5.83333
37.8,15
37.84,18.3333
37.88,34.1667
37.92,45
37.96,48.3333
38,65.8333
38.04,42.5
38.08,40.8333
38.12,21.6667
38.16,10.8333
38.2,10.8333
38.24,9.16667
38.28,11.6667
38.32,10
38.36,9.16667
38.4,4.16667
38.44,6.66667
38.48,7.5
38.52,5.83333
38.56,5
38.6,5
38.64,6.66667
38.68,5
38.72,2.5
38.76,8.33333
38.8,11.6667
38.84,20.8333
38.88,27.5
38.92,53.3333
38.96,80.8333
39,95.8333
39.04,100.833
39.08,70.8333
39.12,45
39.16,36.6667
39.2,10
39.24,15
39.28,3.33333
39.32,7.5
39.36,6.66667
39.4,5.83333
39.44,4.16667
39.48,8.33333
39.52,8.33333
39.56,5.83333
39.6,5
39.64,5.83333
39.68,6.66667
39.72,15.8333
39.76,17.5
39.8,27.5
39.84,24.1667
39.88,21.6667
39.92,16.6667
39.96,13.3333
40,10
40.04,9.16667
40.08,3.33333
40.12,2.5
40.16,6.66667
40.2,8.33333
40.24,16.6667
40.28,10
40.32,15
40.36,11.6667
40.4,10
40.44,5.83333
40.48,4.16667
40.52,7.5
40.56,5.83333
40.6,10
40.64,10
40.68,6.66667
40.72,10
40.76,15
40.8,34.1667
40.84,37.5
40.88,41.6667
40.92,31.6667
40.96,25.8333
41,15
41.04,15.8333
41.08,9.16667
41.12,5
41.16,7.5
41.2,7.5
41.24,7.5
41.28,5
41.32,4.16667
41.36,5
41.4,5
41.44,6.66667
41.48,7.5
41.52,5.83333
41.56,10.8333
41.6,14.1667
41.64,13.3333
41.68,24.1667
41.72,40
41.76,30
41.8,28.3333
41.84,25.8333
41.88,15
41.92,11.6667
41.96,5
42,6.66667
42.04,3.33333
42.08,6.66667
42.12,5
42.16,7.5
42.2,5.83333
42.24,3.33333
42.28,5
42.32,6.66667
42.36,3.33333
42.4,2.5
42.44,3.33333
42.48,7.5
42.52,5.83333
42.56,5.83333
42.6,5.83333
42.64,7.5
42.68,9.16667
42.72,7.5
42.76,7.5
42.8,5.83333
42.84,3.33333
42.88,6.66667
42.92,5
42.96,4.16667
43,4.16667
43.04,5
43.08,7.5
43.12,3.33333
43.16,6.66667
43.2,5.83333
43.24,2.5
43.28,4.16667
43.32,6.66667
43.36,3.33333
43.4,5.83333
43.44,6.66667
43.48,5.83333
43.52,6.66667
43.56,5
43.6,5
43.64,5.83333
43.68,2.5
43.72,2.5
43.76,5.83333
43.8,7.5
43.84,7.5
43.88,11.6667
43.92,13.3333
43.96,21.6667
44,23.3333
44.04,20
44.08,32.5
44.12,37.5
44.16,66.6667
44.2,112.5
44.24,147.5
44.28,155
44.32,146.667
44.36,112.5
44.4,90.8333
44.44,50
44.48,23.3333
44.52,20
44.56,15
44.6,10
44.64,10
44.68,7.5
44.72,5.83333
44.76,6.66667
44.8,3.33333
44.84,5.83333
44.88,6.66667
44.92,6.66667
44.96,3.33333
45,4.16667
45.04,6.66667
45.08,5.83333
45.12,4.16667
45.16,7.5
45.2,7.5
45.24,10
45.28,12.5
45.32,22.5
45.36,15.8333
45.4,14.1667
45.44,18.3333
45.48,16.6667
45.52,12.5
45.56,8.33333
45.6,10
45.64,9.16667
45.68,6.66667
45.72,5.83333
45.76,3.33333
45.8,7.5
45.84,8.33333
45.88,12.5
45.92,8.33333
45.96,9.16667
46,10.8333
46.04,10
46.08,7.5
46.12,4.16667
46.16,3.33333
46.2,6.66667
46.24,7.5
46.28,5
46.32,5
46.36,2.5
46.4,5.83333
46.44,6.66667
46.48,5.83333
46.52,5
46.56,6.66667
46.6,5
46.64,4.16667
46.68,5.83333
46.72,5.83333
46.76,15.8333
46.8,18.3333
46.84,27.5
46.88,35
46.92,30
46.96,25
47,20
47.04,10.8333
47.08,6.66667
47.12,9.16667
47.16,5
47.2,4.16667
47.24,4.16667
47.28,6.66667
47.32,5
47.36,5
47.4,5
47.44,6.66667
47.48,5
47.52,5
47.56,12.5
47.6,10
47.64,11.6667
47.68,7.5
47.72,7.5
47.76,10
47.8,8.33333
47.84,8.33333
47.88,7.5
47.92,4.16667
47.96,4.16667
48,1.66667
48.04,7.5
48.08,2.5
48.12,3.33333
48.16,2.5
48.2,6.66667
48.24,2.5
48.28,5.83333
48.32,7.5
48.36,6.66667
48.4,5.83333
48.44,3.33333
48.48,5.83333
48.52,2.5
48.56,5.83333
48.6,5
48.64,5.83333
48.68,6.66667
48.72,8.33333
48.76,13.3333
48.8,24.1667
48.84,18.3333
48.88,29.1667
48.92,21.6667
48.96,9.16667
49,15.8333
49.04,8.33333
49.08,8.33333
49.12,7.5
49.16,6.66667
49.2,10
49.24,11.6667
49.28,17.5
49.32,23.3333
49.36,25
49.4,27.5
49.44,28.3333
49.48,35.8333
49.52,37.5
49.56,30
49.6,54.1667
49.64,98.3333
49.68,91.6667
49.72,90
49.76,65.8333
49.8,64.1667
49.84,50.8333
49.88,38.3333
49.92,19.1667
49.96,10.8333
50,12.5
50.04,6.66667
50.08,9.16667
50.12,8.33333
50.16,5.83333
50.2,4.16667
50.24,9.16667
50.28,9.16667
50.32,9.16667
50.36,17.5
50.4,18.3333
50.44,20.8333
50.48,25
50.52,25.8333
50.56,24.1667
50.6,20.8333
50.64,20.8333
50.68,19.1667
50.72,10.8333
50.76,17.5
50.8,32.5
50.84,55.8333
50.88,105
50.92,119.167
50.96,94.1667
51,75.8333
51.04,74.1667
51.08,61.6667
51.12,34.1667
51.16,23.3333
51.2,20
51.24,17.5
51.28,19.1667
51.32,15
51.36,14.1667
51.4,10.8333
51.44,18.3333
51.48,6.66667
51.52,7.5
51.56,10.8333
51.6,9.16667
51.64,9.16667
51.68,16.6667
51.72,27.5
51.76,47.5
51.8,77.5
51.84,71.6667
51.88,58.3333
51.92,60
51.96,46.6667
52,39.1667
52.04,21.6667
52.08,15.8333
52.12,9.16667
52.16,5.83333
52.2,10
52.24,7.5
52.28,9.16667
52.32,5.83333
52.36,9.16667
52.4,11.6667
52.44,12.5
52.48,19.1667
52.52,20
52.56,13.3333
52.6,11.6667
52.64,12.5
52.68,16.6667
52.72,5.83333
52.76,5
52.8,2.5
52.84,5
52.88,5.83333
52.92,4.16667
52.96,10
53,7.5
53.04,4.16667
53.08,2.5
53.12,5.83333
53.16,6.66667
53.2,6.66667
53.24,5.83333
53.28,6.66667
53.32,8.33333
53.36,7.5
53.4,11.6667
53.44,19.1667
53.48,19.1667
53.52,26.6667
53.56,19.1667
53.6,27.5
53.64,31.6667
53.68,21.6667
53.72,17.5
53.76,15.8333
53.8,15
53.84,18.3333
53.88,18.3333
53.92,25
53.96,26.6667
54,41.6667
54.04,61.6667
54.08,118.333
54.12,162.5
54.16,145
54.2,138.333
54.24,111.667
54.28,112.5
54.32,101.667
54.36,88.3333
54.4,65.8333
54.44,38.3333
54.48,30.8333
54.52,25
54.56,22.5
54.6,17.5
54.64,12.5
54.68,15
54.72,15
54.76,21.6667
54.8,25.8333
54.84,28.3333
54.88,15.8333
54.92,15.8333
54.96,15
55,20
55.04,21.6667
55.08,22.5
55.12,29.1667
55.16,16.6667
55.2,16.6667
55.24,14.1667
55.28,11.6667
55.32,10.8333
55.36,7.5
55.4,6.66667
55.44,7.5
55.48,4.16667
55.52,7.5
55.56,10
55.6,5
55.64,7.5
55.68,10
55.72,8.33333
55.76,14.1667
55.8,20
55.84,42.5
55.88,63.3333
55.92,102.5
55.96,106.667
56,88.3333
56.04,59.1667
56.08,80
56.12,65
56.16,38.3333
56.2,23.3333
56.24,13.3333
56.28,10.8333
56.32,8.33333
56.36,12.5
56.4,6.66667
56.44,7.5
56.48,10.8333
56.52,5.83333
56.56,10
56.6,10
56.64,5.83333
56.68,5
56.72,7.5
56.76,10.8333
56.8,16.6667
56.84,12.5
56.88,12.5
56.92,20.8333
56.96,26.6667
57,14.1667
57.04,15.8333
57.08,12.5
57.12,18.3333
57.16,9.16667
57.2,10
57.24,8.33333
57.28,4.16667
57.32,7.5
57.36,10
57.4,8.33333
57.44,10
57.48,10
57.52,12.5
57.56,8.33333
57.6,11.6667
57.64,7.5
57.68,5.83333
57.72,5.83333
57.76,6.66667
57.8,7.5
57.84,14.1667
57.88,15.8333
57.92,13.3333
57.96,11.6667
58,14.1667
58.04,17.5
58.08,20.8333
58.12,23.3333
58.16,24.1667
58.2,19.1667
58.24,26.6667
58.28,21.6667
58.32,16.6667
58.36,16.6667
58.4,19.1667
58.44,22.5
58.48,30
58.52,71.6667
58.56,132.5
58.6,195.833
58.64,290.833
58.68,190.833
58.72,195
58.76,157.5
58.8,152.5
58.84,121.667
58.88,65
58.92,40.8333
58.96,30
59,24.1667
59.04,22.5
59.08,15.8333
59.12,22.5
59.16,10.8333
59.2,7.5
59.24,5.83333
59.28,10.8333
59.32,7.5
59.36,5
59.4,3.33333
59.44,2.5
59.48,5.83333
59.52,8.33333
59.56,11.6667
59.6,1.66667
59.64,11.6667
59.68,7.5
59.72,10.8333
59.76,14.1667
59.8,17.5
59.84,21.6667
59.88,25
59.92,16.6667
59.96,14.1667
60,20.8333