File: XRD_graph/XRD_data/Li2ZnSn3O8_XRD/Li2.5ZnSn2.4In0.6O8_20250127.txt
2theta,Intensity
10,7.33333
10.04,5.33333
10.08,7.33333
10.12,6
10.16,6
10.2,7.33333
10.24,7.33333
10.28,6
10.32,5.33333
10.36,6.66667
10.4,6.66667
10.44,6
10.48,6
10.52,9.33333
10.56,6.66667
10.6,6
10.64,6.66667
10.68,7.33333
10.72,6
10.76,6
10.8,6
10.84,7.33333
10.88,8.66667
10.92,6.66667
10.96,7.33333
11,6.66667
11.04,8
11.08,8
11.12,6
11.16,8
11.2,6
11.24,3.33333
11.28,6
11.32,6.66667
11.36,7.33333
11.4,4.66667
11.44,5.33333
11.48,6
11.52,6
11.56,5.33333
11.6,4.66667
11.64,8
11.68,5.33333
11.72,6
11.76,5.33333
11.8,8.66667
11.84,6.66667
11.88,6.66667
11.92,8.66667
11.96,10
12,8
12.04,10
12.08,4.66667
12.12,7.33333
12.16,9.33333
12.2,8.66667
12.24,12
12.28,10
12.32,9.33333
12.36,10
12.4,10.6667
12.44,10
12.48,10.6667
12.52,7.33333
12.56,6
12.6,8.66667
12.64,8
12.68,8.66667
12.72,8
12.76,6.66667
12.8,4.66667
12.84,8
12.88,8.66667
12.92,7.33333
12.96,6.66667
13,9.33333
13.04,13.3333
13.08,8.66667
13.12,12
13.16,8
13.2,8
13.24,7.33333
13.28,6.66667
13.32,4.66667
13.36,5.33333
13.4,6
13.44,6.66667
13.48,10.6667
13.52,7.33333
13.56,8.66667
13.6,8
13.64,3.33333
13.68,9.33333
13.72,9.33333
13.76,6.66667
13.8,10
13.84,11.3333
13.88,6
13.92,4
13.96,3.33333
14,4
14.04,4.66667
14.08,8
14.12,5.33333
14.16,6.66667
14.2,7.33333
14.24,5.33333
14.28,6.66667
14.32,10.6667
14.36,6
14.4,4
14.44,6
14.48,6
14.52,8
14.56,10
14.6,10
14.64,14
14.68,4
14.72,5.33333
14.76,8
14.8,4.66667
14.84,7.33333
14.88,8.66667
14.92,8
14.96,8
15,9.33333
15.04,4
15.08,8
15.12,6
15.16,6.66667
15.2,8
15.24,7.33333
15.28,11.3333
15.32,11.3333
15.36,9.33333
15.4,6.66667
15.44,6
15.48,8
15.52,11.3333
15.56,12
15.6,8.66667
15.64,10
15.68,10
15.72,12.6667
15.76,12.6667
15.8,10.6667
15.84,8.66667
15.88,12.6667
15.92,12.6667
15.96,6
16,9.33333
16.04,9.33333
16.08,16
16.12,21.3333
16.16,12.6667
16.2,8.66667
16.24,10.6667
16.28,14
16.32,12.6667
16.36,10.6667
16.4,14
16.44,16.6667
16.48,17.3333
16.52,26
16.56,36
16.6,38.6667
16.64,36.6667
16.68,41.3333
16.72,44.6667
16.76,26.6667
16.8,23.3333
16.84,18
16.88,14
16.92,13.3333
16.96,18
17,18
17.04,17.3333
17.08,17.3333
17.12,23.3333
17.16,11.3333
17.2,21.3333
17.24,20.6667
17.28,25.3333
17.32,20.6667
17.36,28.6667
17.4,22
17.44,33.3333
17.48,26
17.52,26
17.56,36.6667
17.6,41.3333
17.64,52.6667
17.68,68.6667
17.72,107.333
17.76,156.667
17.8,222.667
17.84,226.667
17.88,198
17.92,133.333
17.96,67.3333
18,26.6667
18.04,23.3333
18.08,26.6667
18.12,25.3333
18.16,18
18.2,19.3333
18.24,13.3333
18.28,16
18.32,11.3333
18.36,13.3333
18.4,12
18.44,16
18.48,15.3333
18.52,18
18.56,20.6667
18.6,22.6667
18.64,24.6667
18.68,31.3333
18.72,40
18.76,54.6667
18.8,94
18.84,130
18.88,184.667
18.92,224
18.96,232.667
19,210.667
19.04,158.667
19.08,170.667
19.12,188.667
19.16,151.333
19.2,104.667
19.24,81.3333
19.28,77.3333
19.32,72.6667
19.36,80
19.4,54.6667
19.44,54.6667
19.48,40
19.52,32
19.56,28.6667
19.6,26.6667
19.64,27.3333
19.68,25.3333
19.72,20
19.76,21.3333
19.8,20.6667
19.84,18.6667
19.88,20
19.92,20
19.96,17.3333
20,18.6667
20.04,18.6667
20.08,16.6667
20.12,17.3333
20.16,21.3333
20.2,26.6667
20.24,20
20.28,27.3333
20.32,24.6667
20.36,26
20.4,18
20.44,20
20.48,14
20.52,18
20.56,14.6667
20.6,16
20.64,16.6667
20.68,20.6667
20.72,15.3333
20.76,20
20.8,14
20.84,17.3333
20.88,15.3333
20.92,22
20.96,27.3333
21,21.3333
21.04,29.3333
21.08,42.6667
21.12,54
21.16,59.3333
21.2,72.6667
21.24,73.3333
21.28,72.6667
21.32,57.3333
21.36,40
21.4,36.6667
21.44,23.3333
21.48,24
21.52,18
21.56,16.6667
21.6,18
21.64,16
21.68,16
21.72,14.6667
21.76,15.3333
21.8,16.6667
21.84,19.3333
21.88,16.6667
21.92,11.3333
21.96,11.3333
22,14
22.04,10.6667
22.08,10.6667
22.12,12
22.16,16.6667
22.2,14
22.24,10.6667
22.28,16
22.32,12
22.36,8.66667
22.4,13.3333
22.44,11.3333
22.48,12
22.52,11.3333
22.56,15.3333
22.6,17.3333
22.64,12.6667
22.68,12
22.72,11.3333
22.76,13.3333
22.8,12.6667
22.84,14
22.88,10
22.92,14
22.96,16
23,11.3333
23.04,12
23.08,12
23.12,12
23.16,13.3333
23.2,15.3333
23.24,13.3333
23.28,12
23.32,8.66667
23.36,14
23.4,11.3333
23.44,7.33333
23.48,11.3333
23.52,8.66667
23.56,12.6667
23.6,9.33333
23.64,11.3333
23.68,8.66667
23.72,16
23.76,10.6667
23.8,13.3333
23.84,10.6667
23.88,14.6667
23.92,13.3333
23.96,12.6667
24,18
24.04,13.3333
24.08,10.6667
24.12,21.3333
24.16,20.6667
24.2,19.3333
24.24,24.6667
24.28,37.3333
24.32,48
24.36,78
24.4,123.333
24.44,187.333
24.48,276.667
24.52,338.667
24.56,362
24.6,266.667
24.64,156
24.68,68
24.72,44
24.76,26.6667
24.8,26.6667
24.84,24
24.88,17.3333
24.92,22.6667
24.96,18
25,11.3333
25.04,17.3333
25.08,12.6667
25.12,10.6667
25.16,14
25.2,11.3333
25.24,12.6667
25.28,16.6667
25.32,14
25.36,10
25.4,12.6667
25.44,18
25.48,16.6667
25.52,14.6667
25.56,18.6667
25.6,19.3333
25.64,19.3333
25.68,19.3333
25.72,20
25.76,18
25.8,14
25.84,12
25.88,12.6667
25.92,7.33333
25.96,17.3333
26,12
26.04,9.33333
26.08,13.3333
26.12,15.3333
26.16,18.6667
26.2,12.6667
26.24,18
26.28,24
26.32,28
26.36,39.3333
26.4,46
26.44,43.3333
26.48,37.3333
26.52,30
26.56,38.6667
26.6,22
26.64,18.6667
26.68,12.6667
26.72,15.3333
26.76,15.3333
26.8,20
26.84,17.3333
26.88,9.33333
26.92,20.6667
26.96,15.3333
27,21.3333
27.04,34
27.08,26
27.12,24
27.16,38
27.2,32.6667
27.24,28
27.28,33.3333
27.32,24.6667
27.36,23.3333
27.4,18
27.44,17.3333
27.48,10
27.52,15.3333
27.56,13.3333
27.6,20.6667
27.64,12.6667
27.68,17.3333
27.72,11.3333
27.76,18
27.8,10.6667
27.84,11.3333
27.88,12.6667
27.92,12.6667
27.96,12.6667
28,12
28.04,12.6667
28.08,12
28.12,14
28.16,14
28.2,10
28.24,11.3333
28.28,14.6667
28.32,10.6667
28.36,14.6667
28.4,14.6667
28.44,10
28.48,12
28.52,18
28.56,9.33333
28.6,14
28.64,10
28.68,18
28.72,13.3333
28.76,14.6667
28.8,13.3333
28.84,10
28.88,20
28.92,17.3333
28.96,17.3333
29,26.6667
29.04,33.3333
29.08,50
29.12,63.3333
29.16,89.3333
29.2,64
29.24,47.3333
29.28,36
29.32,18.6667
29.36,14.6667
29.4,14.6667
29.44,16
29.48,12.6667
29.52,16.6667
29.56,16
29.6,10.6667
29.64,14
29.68,13.3333
29.72,17.3333
29.76,9.33333
29.8,13.3333
29.84,11.3333
29.88,11.3333
29.92,9.33333
29.96,12
30,14
30.04,15.3333
30.08,12.6667
30.12,11.3333
30.16,13.3333
30.2,12
30.24,12
30.28,12.6667
30.32,17.3333
30.36,12
30.4,10
30.44,12.6667
30.48,12.6667
30.52,9.33333
30.56,12.6667
30.6,11.3333
30.64,8
30.68,13.3333
30.72,14
30.76,13.3333
30.8,16
30.84,9.33333
30.88,9.33333
30.92,14.6667
30.96,12
31,14
31.04,10.6667
31.08,12
31.12,12
31.16,10.6667
31.2,12.6667
31.24,12
31.28,22
31.32,22
31.36,22
31.4,26.6667
31.44,30
31.48,30
31.52,45.3333
31.56,46
31.6,62.6667
31.64,94
31.68,133.333
31.72,181.333
31.76,232.667
31.8,316
31.84,396.667
31.88,400
31.92,313.333
31.96,201.333
32,106
32.04,54
32.08,42.6667
32.12,32.6667
32.16,23.3333
32.2,20
32.24,23.3333
32.28,16.6667
32.32,12
32.36,12
32.4,13.3333
32.44,17.3333
32.48,11.3333
32.52,14
32.56,13.3333
32.6,10.6667
32.64,14
32.68,14.6667
32.72,12
32.76,12
32.8,17.3333
32.84,19.3333
32.88,18
32.92,13.3333
32.96,12.6667
33,16.6667
33.04,16.6667
33.08,18
33.12,18
33.16,21.3333
33.2,21.3333
33.24,30.6667
33.28,24.6667
33.32,36
33.36,43.3333
33.4,35.3333
33.44,41.3333
33.48,35.3333
33.52,36
33.56,41.3333
33.6,54
33.64,67.3333
33.68,109.333
33.72,171.333
33.76,238
33.8,244.667
33.84,211.333
33.88,148
33.92,111.333
33.96,62
34,46.6667
34.04,44
34.08,40.6667
34.12,55.3333
34.16,76
34.2,114.667
34.24,149.333
34.28,215.333
34.32,294
34.36,418.667
34.4,552.667
34.44,525.333
34.48,404.667
34.52,267.333
34.56,192.667
34.6,132
34.64,110
34.68,83.3333
34.72,70.6667
34.76,62
34.8,66
34.84,85.3333
34.88,105.333
34.92,164
34.96,290
35,380
35.04,433.333
35.08,370
35.12,251.333
35.16,164.667
35.2,86.6667
35.24,55.3333
35.28,36.6667
35.32,31.3333
35.36,30
35.4,27.3333
35.44,26.6667
35.48,32
35.52,31.3333
35.56,40
35.6,28.6667
35.64,30.6667
35.68,33.3333
35.72,34
35.76,35.3333
35.8,39.3333
35.84,43.3333
35.88,40.6667
35.92,36
35.96,34
36,30.6667
36.04,30.6667
36.08,36.6667
36.12,67.3333
36.16,82
36.2,94.6667
36.24,77.3333
36.28,59.3333
36.32,41.3333
36.36,26
36.4,16.6667
36.44,12.6667
36.48,12
36.52,12
36.56,11.3333
36.6,10
36.64,11.3333
36.68,10.6667
36.72,10
36.76,8
36.8,9.33333
36.84,7.33333
36.88,8
36.92,7.33333
36.96,6
37,8
37.04,8
37.08,8
37.12,7.33333
37.16,8
37.2,6.66667
37.24,11.3333
37.28,10.6667
37.32,9.33333
37.36,10
37.4,13.3333
37.44,12
37.48,12
37.52,18
37.56,16
37.6,12
37.64,11.3333
37.68,18.6667
37.72,13.3333
37.76,10.6667
37.8,6
37.84,7.33333
37.88,13.3333
37.92,14
37.96,12.6667
38,17.3333
38.04,22.6667
38.08,16.6667
38.12,14
38.16,11.3333
38.2,13.3333
38.24,15.3333
38.28,15.3333
38.32,11.3333
38.36,24.6667
38.4,42
38.44,58
38.48,80
38.52,84
38.56,64
38.6,54.6667
38.64,36.6667
38.68,20.6667
38.72,12.6667
38.76,13.3333
38.8,13.3333
38.84,15.3333
38.88,17.3333
38.92,12
38.96,12.6667
39,10.6667
39.04,7.33333
39.08,15.3333
39.12,14
39.16,14
39.2,15.3333
39.24,16.6667
39.28,13.3333
39.32,20
39.36,10.6667
39.4,13.3333
39.44,14.6667
39.48,10
39.52,7.33333
39.56,5.33333
39.6,4.66667
39.64,7.33333
39.68,10.6667
39.72,9.33333
39.76,8.66667
39.8,8.66667
39.84,9.33333
39.88,8.66667
39.92,8
39.96,14.6667
40,8
40.04,12.6667
40.08,11.3333
40.12,12
40.16,9.33333
40.2,9.33333
40.24,11.3333
40.28,14.6667
40.32,16.6667
40.36,16.6667
40.4,23.3333
40.44,12
40.48,10.6667
40.52,12.6667
40.56,10
40.6,12
40.64,11.3333
40.68,11.3333
40.72,8
40.76,9.33333
40.8,6.66667
40.84,8
40.88,7.33333
40.92,4
40.96,8.66667
41,10
41.04,6.66667
41.08,8
41.12,7.33333
41.16,8
41.2,10.6667
41.24,10.6667
41.28,12
41.32,16.6667
41.36,14
41.4,12.6667
41.44,16.6667
41.48,20.6667
41.52,18
41.56,22
41.6,24.6667
41.64,23.3333
41.68,37.3333
41.72,62
41.76,74.6667
41.8,82.6667
41.84,64.6667
41.88,50
41.92,56
41.96,27.3333
42,20
42.04,15.3333
42.08,12.6667
42.12,9.33333
42.16,10.6667
42.2,7.33333
42.24,7.33333
42.28,8.66667
42.32,7.33333
42.36,6
42.4,4.66667
42.44,6
42.48,3.33333
42.52,8.66667
42.56,6.66667
42.6,9.33333
42.64,7.33333
42.68,7.33333
42.72,11.3333
42.76,8
42.8,10
42.84,10
42.88,8.66667
42.92,12.6667
42.96,13.3333
43,6.66667
43.04,13.3333
43.08,14
43.12,14.6667
43.16,20.6667
43.2,31.3333
43.24,35.3333
43.28,24.6667
43.32,24.6667
43.36,22
43.4,18.6667
43.44,22
43.48,20
43.52,25.3333
43.56,31.3333
43.6,40
43.64,48.6667
43.68,99.3333
43.72,124
43.76,162
43.8,129.333
43.84,118.667
43.88,86.6667
43.92,61.3333
43.96,33.3333
44,27.3333
44.04,21.3333
44.08,14.6667
44.12,16
44.16,12
44.2,11.3333
44.24,11.3333
44.28,8.66667
44.32,12.6667
44.36,8
44.4,6.66667
44.44,6
44.48,9.33333
44.52,8.66667
44.56,6
44.6,6.66667
44.64,6.66667
44.68,8
44.72,8
44.76,9.33333
44.8,9.33333
44.84,8.66667
44.88,10.6667
44.92,10.6667
44.96,11.3333
45,13.3333
45.04,10
45.08,12
45.12,7.33333
45.16,14
45.2,12.6667
45.24,16.6667
45.28,13.3333
45.32,11.3333
45.36,9.33333
45.4,11.3333
45.44,12
45.48,8.66667
45.52,8.66667
45.56,9.33333
45.6,8.66667
45.64,8.66667
45.68,15.3333
45.72,16
45.76,26
45.8,27.3333
45.84,21.3333
45.88,28
45.92,14
45.96,22.6667
46,15.3333
46.04,15.3333
46.08,12.6667
46.12,16.6667
46.16,21.3333
46.2,26
46.24,34.6667
46.28,30.6667
46.32,20.6667
46.36,24.6667
46.4,21.3333
46.44,12
46.48,12
46.52,8.66667
46.56,6.66667
46.6,8.66667
46.64,8.66667
46.68,9.33333
46.72,6
46.76,10
46.8,7.33333
46.84,4.66667
46.88,7.33333
46.92,9.33333
46.96,5.33333
47,8.66667
47.04,10.6667
47.08,8.66667
47.12,10
47.16,7.33333
47.2,5.33333
47.24,6.66667
47.28,6.66667
47.32,6.66667
47.36,6.66667
47.4,4.66667
47.44,10.6667
47.48,5.33333
47.52,4
47.56,8
47.6,6
47.64,8
47.68,8.66667
47.72,4
47.76,8
47.8,9.33333
47.84,6.66667
47.88,6
47.92,7.33333
47.96,5.33333
48,12
48.04,9.33333
48.08,13.3333
48.12,14
48.16,13.3333
48.2,8.66667
48.24,12
48.28,13.3333
48.32,12.6667
48.36,12
48.4,12
48.44,16.6667
48.48,13.3333
48.52,10.6667
48.56,12
48.6,11.3333
48.64,14.6667
48.68,13.3333
48.72,12
48.76,23.3333
48.8,33.3333
48.84,22.6667
48.88,49.3333
48.92,69.3333
48.96,86
49,114.667
49.04,114.667
49.08,114
49.12,78
49.16,85.3333
49.2,51.3333
49.24,41.3333
49.28,18
49.32,16
49.36,16.6667
49.4,12.6667
49.44,7.33333
49.48,15.3333
49.52,14.6667
49.56,10
49.6,12.6667
49.64,13.3333
49.68,18
49.72,21.3333
49.76,16.6667
49.8,18
49.84,18
49.88,15.3333
49.92,17.3333
49.96,16
50,19.3333
50.04,18.6667
50.08,12.6667
50.12,16.6667
50.16,22.6667
50.2,27.3333
50.24,28.6667
50.28,45.3333
50.32,62.6667
50.36,101.333
50.4,107.333
50.44,102.667
50.48,74.6667
50.52,75.3333
50.56,60
50.6,41.3333
50.64,25.3333
50.68,13.3333
50.72,15.3333
50.76,12.6667
50.8,10
50.84,7.33333
50.88,11.3333
50.92,10
50.96,10.6667
51,10
51.04,9.33333
51.08,8
51.12,6.66667
51.16,7.33333
51.2,8
51.24,11.3333
51.28,8.66667
51.32,8.66667
51.36,10
51.4,8.66667
51.44,10
51.48,8.66667
51.52,8.66667
51.56,8
51.6,10.6667
51.64,9.33333
51.68,12
51.72,18.6667
51.76,15.3333
51.8,16
51.84,15.3333
51.88,10.6667
51.92,12
51.96,10
52,8
52.04,7.33333
52.08,8
52.12,8.66667
52.16,8.66667
52.2,6.66667
52.24,7.33333
52.28,6.66667
52.32,6.66667
52.36,9.33333
52.4,6.66667
52.44,7.33333
52.48,10
52.52,14
52.56,9.33333
52.6,13.3333
52.64,10
52.68,16.6667
52.72,17.3333
52.76,18
52.8,16.6667
52.84,16
52.88,16
52.92,17.3333
52.96,13.3333
53,13.3333
53.04,13.3333
53.08,18.6667
53.12,21.3333
53.16,30
53.2,37.3333
53.24,49.3333
53.28,61.3333
53.32,64
53.36,70.6667
53.4,93.3333
53.44,142.667
53.48,178
53.52,140.667
53.56,129.333
53.6,107.333
53.64,110
53.68,64.6667
53.72,44.6667
53.76,34.6667
53.8,28
53.84,26.6667
53.88,20.6667
53.92,13.3333
53.96,14
54,12
54.04,13.3333
54.08,12
54.12,14
54.16,10.6667
54.2,12
54.24,11.3333
54.28,12
54.32,12.6667
54.36,14
54.4,14.6667
54.44,13.3333
54.48,16
54.52,14.6667
54.56,10
54.6,12.6667
54.64,11.3333
54.68,14.6667
54.72,12
54.76,12.6667
54.8,10
54.84,12.6667
54.88,17.3333
54.92,12
54.96,18
55,25.3333
55.04,28.6667
55.08,39.3333
55.12,60
55.16,69.3333
55.2,102.667
55.24,93.3333
55.28,72.6667
55.32,71.3333
55.36,55.3333
55.4,68
55.44,38.6667
55.48,42
55.52,31.3333
55.56,38
55.6,38
55.64,26.6667
55.68,30
55.72,29.3333
55.76,30.6667
55.8,22
55.84,19.3333
55.88,24
55.92,31.3333
55.96,28
56,20.6667
56.04,18.6667
56.08,26
56.12,22
56.16,20
56.2,17.3333
56.24,23.3333
56.28,12.6667
56.32,13.3333
56.36,9.33333
56.4,8.66667
56.44,11.3333
56.48,10
56.52,16.6667
56.56,10
56.6,7.33333
56.64,10.6667
56.68,14
56.72,12
56.76,8.66667
56.8,8.66667
56.84,10
56.88,5.33333
56.92,10.6667
56.96,10
57,7.33333
57.04,12
57.08,16
57.12,9.33333
57.16,19.3333
57.2,26.6667
57.24,30
57.28,37.3333
57.32,39.3333
57.36,38.6667
57.4,34
57.44,34.6667
57.48,30.6667
57.52,32
57.56,17.3333
57.6,18
57.64,27.3333
57.68,18.6667
57.72,15.3333
57.76,22.6667
57.8,31.3333
57.84,35.3333
57.88,46.6667
57.92,69.3333
57.96,100.667
58,147.333
58.04,234.667
58.08,282
58.12,210
58.16,155.333
58.2,155.333
58.24,134.667
58.28,114
58.32,44.6667
58.36,39.3333
58.4,30.6667
58.44,26
58.48,17.3333
58.52,18.6667
58.56,13.3333
58.6,14
58.64,12
58.68,9.33333
58.72,11.3333
58.76,11.3333
58.8,14
58.84,10
58.88,10.6667
58.92,10.6667
58.96,15.3333
59,14
59.04,22.6667
59.08,19.3333
59.12,23.3333
59.16,14.6667
59.2,22.6667
59.24,16.6667
59.28,19.3333
59.32,12
59.36,12.6667
59.4,10.6667
59.44,8
59.48,17.3333
59.52,12.6667
59.56,6.66667
59.6,12.6667
59.64,12.6667
59.68,12
59.72,8
59.76,9.33333
59.8,9.33333
59.84,7.33333
59.88,10
59.92,16
59.96,10.6667
60,18.6667