File: XRD_graph/XRD_data/Li2ZnSn3O8_XRD/Li2ZnSn3O8_20240711.txt
2theta,Intensity
10,5
10.04,5.83333
10.08,6.66667
10.12,5.83333
10.16,5
10.2,5
10.24,7.5
10.28,5.83333
10.32,6.66667
10.36,5.83333
10.4,5
10.44,5.83333
10.48,5.83333
10.52,4.16667
10.56,1.66667
10.6,9.16667
10.64,5.83333
10.68,4.16667
10.72,8.33333
10.76,7.5
10.8,3.33333
10.84,5
10.88,5.83333
10.92,5.83333
10.96,6.66667
11,7.5
11.04,10
11.08,5
11.12,6.66667
11.16,5
11.2,4.16667
11.24,5.83333
11.28,4.16667
11.32,5.83333
11.36,3.33333
11.4,5
11.44,3.33333
11.48,5.83333
11.52,9.16667
11.56,5.83333
11.6,2.5
11.64,5
11.68,4.16667
11.72,4.16667
11.76,4.16667
11.8,5.83333
11.84,5
11.88,5
11.92,3.33333
11.96,5
12,3.33333
12.04,5
12.08,4.16667
12.12,6.66667
12.16,5.83333
12.2,5.83333
12.24,5.83333
12.28,5
12.32,5
12.36,6.66667
12.4,5
12.44,2.5
12.48,5.83333
12.52,5
12.56,6.66667
12.6,5.83333
12.64,3.33333
12.68,5.83333
12.72,10.8333
12.76,5
12.8,3.33333
12.84,5.83333
12.88,5
12.92,10
12.96,10.8333
13,7.5
13.04,7.5
13.08,9.16667
13.12,8.33333
13.16,5
13.2,8.33333
13.24,4.16667
13.28,9.16667
13.32,4.16667
13.36,9.16667
13.4,10
13.44,7.5
13.48,4.16667
13.52,5.83333
13.56,3.33333
13.6,6.66667
13.64,5
13.68,4.16667
13.72,9.16667
13.76,7.5
13.8,4.16667
13.84,5
13.88,6.66667
13.92,5
13.96,5
14,8.33333
14.04,1.66667
14.08,4.16667
14.12,6.66667
14.16,4.16667
14.2,10.8333
14.24,3.33333
14.28,3.33333
14.32,4.16667
14.36,0.833333
14.4,6.66667
14.44,7.5
14.48,5.83333
14.52,7.5
14.56,6.66667
14.6,5
14.64,6.66667
14.68,3.33333
14.72,5
14.76,5.83333
14.8,7.5
14.84,6.66667
14.88,5
14.92,2.5
14.96,8.33333
15,4.16667
15.04,3.33333
15.08,2.5
15.12,5
15.16,3.33333
15.2,4.16667
15.24,6.66667
15.28,5.83333
15.32,3.33333
15.36,4.16667
15.4,6.66667
15.44,7.5
15.48,8.33333
15.52,9.16667
15.56,4.16667
15.6,6.66667
15.64,3.33333
15.68,5.83333
15.72,3.33333
15.76,5
15.8,7.5
15.84,8.33333
15.88,4.16667
15.92,5.83333
15.96,6.66667
16,2.5
16.04,7.5
16.08,8.33333
16.12,5
16.16,3.33333
16.2,4.16667
16.24,9.16667
16.28,8.33333
16.32,6.66667
16.36,4.16667
16.4,8.33333
16.44,6.66667
16.48,7.5
16.52,9.16667
16.56,5.83333
16.6,5.83333
16.64,6.66667
16.68,13.3333
16.72,11.6667
16.76,14.1667
16.8,9.16667
16.84,6.66667
16.88,6.66667
16.92,5.83333
16.96,5.83333
17,5
17.04,5.83333
17.08,6.66667
17.12,5
17.16,6.66667
17.2,5
17.24,4.16667
17.28,5
17.32,5.83333
17.36,6.66667
17.4,5.83333
17.44,6.66667
17.48,10
17.52,10
17.56,7.5
17.6,5.83333
17.64,10
17.68,7.5
17.72,9.16667
17.76,15
17.8,13.3333
17.84,18.3333
17.88,15
17.92,10
17.96,10.8333
18,7.5
18.04,4.16667
18.08,2.5
18.12,8.33333
18.16,5
18.2,5.83333
18.24,4.16667
18.28,5
18.32,6.66667
18.36,4.16667
18.4,2.5
18.44,4.16667
18.48,5
18.52,5
18.56,4.16667
18.6,7.5
18.64,6.66667
18.68,5.83333
18.72,8.33333
18.76,7.5
18.8,6.66667
18.84,11.6667
18.88,13.3333
18.92,18.3333
18.96,20.8333
19,30.8333
19.04,28.3333
19.08,20
19.12,9.16667
19.16,9.16667
19.2,10.8333
19.24,11.6667
19.28,12.5
19.32,15.8333
19.36,22.5
19.4,25.8333
19.44,15.8333
19.48,7.5
19.52,7.5
19.56,7.5
19.6,5.83333
19.64,9.16667
19.68,7.5
19.72,5.83333
19.76,8.33333
19.8,3.33333
19.84,8.33333
19.88,4.16667
19.92,5
19.96,5.83333
20,5.83333
20.04,5
20.08,3.33333
20.12,5.83333
20.16,4.16667
20.2,5.83333
20.24,5.83333
20.28,7.5
20.32,8.33333
20.36,11.6667
20.4,7.5
20.44,5.83333
20.48,7.5
20.52,6.66667
20.56,5
20.6,5.83333
20.64,8.33333
20.68,4.16667
20.72,4.16667
20.76,3.33333
20.8,5
20.84,8.33333
20.88,6.66667
20.92,4.16667
20.96,7.5
21,5.83333
21.04,6.66667
21.08,5.83333
21.12,6.66667
21.16,8.33333
21.2,11.6667
21.24,15.8333
21.28,15
21.32,17.5
21.36,33.3333
21.4,27.5
21.44,20
21.48,15.8333
21.52,12.5
21.56,5.83333
21.6,9.16667
21.64,3.33333
21.68,5.83333
21.72,9.16667
21.76,3.33333
21.8,7.5
21.84,5.83333
21.88,5
21.92,4.16667
21.96,5
22,5
22.04,4.16667
22.08,6.66667
22.12,4.16667
22.16,5
22.2,5
22.24,6.66667
22.28,6.66667
22.32,3.33333
22.36,5
22.4,4.16667
22.44,5
22.48,5.83333
22.52,5
22.56,1.66667
22.6,6.66667
22.64,4.16667
22.68,7.5
22.72,10
22.76,5
22.8,6.66667
22.84,4.16667
22.88,5.83333
22.92,6.66667
22.96,6.66667
23,4.16667
23.04,3.33333
23.08,5.83333
23.12,3.33333
23.16,5
23.2,7.5
23.24,7.5
23.28,5
23.32,3.33333
23.36,3.33333
23.4,3.33333
23.44,3.33333
23.48,6.66667
23.52,2.5
23.56,5.83333
23.6,5
23.64,3.33333
23.68,5
23.72,4.16667
23.76,5.83333
23.8,4.16667
23.84,5.83333
23.88,4.16667
23.92,9.16667
23.96,6.66667
24,5
24.04,5.83333
24.08,4.16667
24.12,5.83333
24.16,3.33333
24.2,5.83333
24.24,5
24.28,5.83333
24.32,8.33333
24.36,8.33333
24.4,10
24.44,21.6667
24.48,21.6667
24.52,32.5
24.56,42.5
24.6,50.8333
24.64,61.6667
24.68,43.3333
24.72,19.1667
24.76,17.5
24.8,12.5
24.84,10.8333
24.88,5
24.92,5
24.96,6.66667
25,8.33333
25.04,8.33333
25.08,10.8333
25.12,7.5
25.16,3.33333
25.2,2.5
25.24,5
25.28,4.16667
25.32,5.83333
25.36,4.16667
25.4,7.5
25.44,5.83333
25.48,5
25.52,6.66667
25.56,3.33333
25.6,4.16667
25.64,5
25.68,9.16667
25.72,11.6667
25.76,10
25.8,6.66667
25.84,8.33333
25.88,5.83333
25.92,7.5
25.96,6.66667
26,7.5
26.04,8.33333
26.08,9.16667
26.12,8.33333
26.16,9.16667
26.2,10
26.24,11.6667
26.28,8.33333
26.32,11.6667
26.36,21.6667
26.4,33.3333
26.44,39.1667
26.48,51.6667
26.52,63.3333
26.56,37.5
26.6,20.8333
26.64,11.6667
26.68,10
26.72,8.33333
26.76,10
26.8,5
26.84,4.16667
26.88,5
26.92,5.83333
26.96,8.33333
27,10.8333
27.04,10
27.08,7.5
27.12,8.33333
27.16,9.16667
27.2,6.66667
27.24,5.83333
27.28,15
27.32,15
27.36,15
27.4,5.83333
27.44,5.83333
27.48,5
27.52,4.16667
27.56,5
27.6,7.5
27.64,3.33333
27.68,6.66667
27.72,2.5
27.76,5.83333
27.8,4.16667
27.84,5.83333
27.88,2.5
27.92,6.66667
27.96,5.83333
28,4.16667
28.04,5
28.08,5
28.12,3.33333
28.16,8.33333
28.2,10
28.24,6.66667
28.28,7.5
28.32,4.16667
28.36,11.6667
28.4,3.33333
28.44,5.83333
28.48,8.33333
28.52,8.33333
28.56,3.33333
28.6,7.5
28.64,9.16667
28.68,5
28.72,6.66667
28.76,3.33333
28.8,6.66667
28.84,5.83333
28.88,9.16667
28.92,1.66667
28.96,5.83333
29,5
29.04,7.5
29.08,8.33333
29.12,5.83333
29.16,9.16667
29.2,5.83333
29.24,16.6667
29.28,16.6667
29.32,21.6667
29.36,20.8333
29.4,10
29.44,10.8333
29.48,3.33333
29.52,5.83333
29.56,7.5
29.6,5
29.64,6.66667
29.68,4.16667
29.72,2.5
29.76,5
29.8,6.66667
29.84,5
29.88,5
29.92,5
29.96,4.16667
30,3.33333
30.04,7.5
30.08,4.16667
30.12,5
30.16,6.66667
30.2,9.16667
30.24,5
30.28,7.5
30.32,3.33333
30.36,5
30.4,5
30.44,2.5
30.48,5.83333
30.52,5
30.56,5.83333
30.6,6.66667
30.64,2.5
30.68,5.83333
30.72,5
30.76,4.16667
30.8,4.16667
30.84,6.66667
30.88,2.5
30.92,4.16667
30.96,5.83333
31,8.33333
31.04,4.16667
31.08,3.33333
31.12,7.5
31.16,8.33333
31.2,5
31.24,1.66667
31.28,3.33333
31.32,7.5
31.36,5.83333
31.4,7.5
31.44,6.66667
31.48,5
31.52,12.5
31.56,15.8333
31.6,15
31.64,11.6667
31.68,9.16667
31.72,10.8333
31.76,14.1667
31.8,16.6667
31.84,29.1667
31.88,56.6667
31.92,67.5
31.96,80
32,66.6667
32.04,50
32.08,30
32.12,21.6667
32.16,8.33333
32.2,10
32.24,8.33333
32.28,7.5
32.32,5
32.36,4.16667
32.4,5
32.44,3.33333
32.48,4.16667
32.52,5
32.56,1.66667
32.6,5
32.64,5.83333
32.68,9.16667
32.72,3.33333
32.76,2.5
32.8,5.83333
32.84,7.5
32.88,6.66667
32.92,7.5
32.96,3.33333
33,5.83333
33.04,6.66667
33.08,6.66667
33.12,4.16667
33.16,6.66667
33.2,4.16667
33.24,6.66667
33.28,7.5
33.32,7.5
33.36,5.83333
33.4,8.33333
33.44,10
33.48,17.5
33.52,12.5
33.56,12.5
33.6,11.6667
33.64,8.33333
33.68,18.3333
33.72,34.1667
33.76,34.1667
33.8,45
33.84,31.6667
33.88,32.5
33.92,27.5
33.96,35.8333
34,39.1667
34.04,35
34.08,23.3333
34.12,18.3333
34.16,12.5
34.2,6.66667
34.24,5.83333
34.28,7.5
34.32,13.3333
34.36,14.1667
34.4,24.1667
34.44,31.6667
34.48,52.5
34.52,76.6667
34.56,107.5
34.6,108.333
34.64,86.6667
34.68,61.6667
34.72,30.8333
34.76,13.3333
34.8,11.6667
34.84,12.5
34.88,8.33333
34.92,11.6667
34.96,9.16667
35,12.5
35.04,14.1667
35.08,20.8333
35.12,40.8333
35.16,49.1667
35.2,71.6667
35.24,94.1667
35.28,70.8333
35.32,45.8333
35.36,25.8333
35.4,16.6667
35.44,12.5
35.48,12.5
35.52,5.83333
35.56,4.16667
35.6,9.16667
35.64,5
35.68,6.66667
35.72,6.66667
35.76,8.33333
35.8,6.66667
35.84,5.83333
35.88,4.16667
35.92,4.16667
35.96,4.16667
36,10
36.04,6.66667
36.08,5.83333
36.12,5.83333
36.16,7.5
36.2,15
36.24,15.8333
36.28,14.1667
36.32,10.8333
36.36,12.5
36.4,6.66667
36.44,9.16667
36.48,5.83333
36.52,4.16667
36.56,4.16667
36.6,5
36.64,9.16667
36.68,5.83333
36.72,8.33333
36.76,2.5
36.8,5
36.84,4.16667
36.88,3.33333
36.92,1.66667
36.96,3.33333
37,2.5
37.04,4.16667
37.08,4.16667
37.12,4.16667
37.16,3.33333
37.2,4.16667
37.24,2.5
37.28,2.5
37.32,6.66667
37.36,5
37.4,3.33333
37.44,6.66667
37.48,4.16667
37.52,5
37.56,5.83333
37.6,6.66667
37.64,9.16667
37.68,8.33333
37.72,11.6667
37.76,10.8333
37.8,12.5
37.84,11.6667
37.88,9.16667
37.92,6.66667
37.96,10
38,5.83333
38.04,5
38.08,5
38.12,2.5
38.16,4.16667
38.2,2.5
38.24,5
38.28,5.83333
38.32,3.33333
38.36,4.16667
38.4,4.16667
38.44,5
38.48,4.16667
38.52,5
38.56,7.5
38.6,6.66667
38.64,22.5
38.68,15
38.72,25
38.76,14.1667
38.8,14.1667
38.84,9.16667
38.88,9.16667
38.92,5
38.96,7.5
39,4.16667
39.04,5.83333
39.08,4.16667
39.12,6.66667
39.16,5
39.2,1.66667
39.24,1.66667
39.28,4.16667
39.32,6.66667
39.36,2.5
39.4,1.66667
39.44,8.33333
39.48,9.16667
39.52,9.16667
39.56,8.33333
39.6,5.83333
39.64,5
39.68,3.33333
39.72,5.83333
39.76,5
39.8,4.16667
39.84,5.83333
39.88,3.33333
39.92,5
39.96,5.83333
40,5
40.04,4.16667
40.08,6.66667
40.12,2.5
40.16,3.33333
40.2,2.5
40.24,5
40.28,6.66667
40.32,4.16667
40.36,5
40.4,5
40.44,5
40.48,8.33333
40.52,6.66667
40.56,10.8333
40.6,12.5
40.64,10.8333
40.68,9.16667
40.72,8.33333
40.76,2.5
40.8,3.33333
40.84,4.16667
40.88,7.5
40.92,2.5
40.96,4.16667
41,5.83333
41.04,3.33333
41.08,1.66667
41.12,5.83333
41.16,0.833333
41.2,6.66667
41.24,5.83333
41.28,2.5
41.32,10
41.36,5
41.4,9.16667
41.44,7.5
41.48,12.5
41.52,9.16667
41.56,12.5
41.6,6.66667
41.64,5.83333
41.68,5
41.72,3.33333
41.76,2.5
41.8,1.66667
41.84,3.33333
41.88,6.66667
41.92,7.5
41.96,4.16667
42,5.83333
42.04,3.33333
42.08,4.16667
42.12,3.33333
42.16,5
42.2,4.16667
42.24,2.5
42.28,5
42.32,3.33333
42.36,3.33333
42.4,4.16667
42.44,6.66667
42.48,10
42.52,5
42.56,4.16667
42.6,4.16667
42.64,3.33333
42.68,7.5
42.72,3.33333
42.76,4.16667
42.8,2.5
42.84,3.33333
42.88,5
42.92,3.33333
42.96,5
43,5
43.04,3.33333
43.08,3.33333
43.12,7.5
43.16,4.16667
43.2,3.33333
43.24,3.33333
43.28,3.33333
43.32,3.33333
43.36,5.83333
43.4,3.33333
43.44,4.16667
43.48,7.5
43.52,7.5
43.56,6.66667
43.6,8.33333
43.64,10
43.68,10
43.72,5.83333
43.76,11.6667
43.8,9.16667
43.84,10.8333
43.88,23.3333
43.92,25
43.96,39.1667
44,31.6667
44.04,25
44.08,25
44.12,16.6667
44.16,10.8333
44.2,5
44.24,5.83333
44.28,5
44.32,4.16667
44.36,6.66667
44.4,2.5
44.44,4.16667
44.48,5.83333
44.52,5
44.56,5
44.6,1.66667
44.64,3.33333
44.68,6.66667
44.72,5.83333
44.76,4.16667
44.8,3.33333
44.84,5
44.88,5.83333
44.92,5.83333
44.96,7.5
45,4.16667
45.04,5.83333
45.08,8.33333
45.12,7.5
45.16,6.66667
45.2,5.83333
45.24,3.33333
45.28,4.16667
45.32,5
45.36,4.16667
45.4,4.16667
45.44,5.83333
45.48,7.5
45.52,8.33333
45.56,7.5
45.6,7.5
45.64,8.33333
45.68,5.83333
45.72,5.83333
45.76,6.66667
45.8,3.33333
45.84,2.5
45.88,5
45.92,5
45.96,1.66667
46,3.33333
46.04,2.5
46.08,5.83333
46.12,2.5
46.16,4.16667
46.2,3.33333
46.24,4.16667
46.28,6.66667
46.32,4.16667
46.36,7.5
46.4,3.33333
46.44,6.66667
46.48,10
46.52,10
46.56,9.16667
46.6,7.5
46.64,5.83333
46.68,5.83333
46.72,4.16667
46.76,4.16667
46.8,5
46.84,3.33333
46.88,5
46.92,4.16667
46.96,5
47,2.5
47.04,4.16667
47.08,7.5
47.12,5.83333
47.16,4.16667
47.2,5.83333
47.24,5.83333
47.28,2.5
47.32,5.83333
47.36,4.16667
47.4,4.16667
47.44,3.33333
47.48,3.33333
47.52,4.16667
47.56,5
47.6,5.83333
47.64,4.16667
47.68,2.5
47.72,3.33333
47.76,0.833333
47.8,3.33333
47.84,4.16667
47.88,5.83333
47.92,2.5
47.96,5
48,3.33333
48.04,5
48.08,4.16667
48.12,2.5
48.16,7.5
48.2,6.66667
48.24,7.5
48.28,3.33333
48.32,7.5
48.36,5
48.4,7.5
48.44,5.83333
48.48,6.66667
48.52,8.33333
48.56,13.3333
48.6,9.16667
48.64,5
48.68,4.16667
48.72,8.33333
48.76,6.66667
48.8,0.833333
48.84,4.16667
48.88,3.33333
48.92,5.83333
48.96,7.5
49,5.83333
49.04,8.33333
49.08,11.6667
49.12,12.5
49.16,15
49.2,18.3333
49.24,15
49.28,28.3333
49.32,30
49.36,28.3333
49.4,20.8333
49.44,22.5
49.48,16.6667
49.52,11.6667
49.56,10
49.6,6.66667
49.64,4.16667
49.68,3.33333
49.72,5
49.76,3.33333
49.8,8.33333
49.84,4.16667
49.88,7.5
49.92,7.5
49.96,7.5
50,5
50.04,7.5
50.08,8.33333
50.12,6.66667
50.16,8.33333
50.2,7.5
50.24,6.66667
50.28,7.5
50.32,8.33333
50.36,7.5
50.4,8.33333
50.44,10
50.48,10.8333
50.52,10.8333
50.56,23.3333
50.6,33.3333
50.64,32.5
50.68,21.6667
50.72,21.6667
50.76,19.1667
50.8,9.16667
50.84,10.8333
50.88,10.8333
50.92,9.16667
50.96,8.33333
51,6.66667
51.04,4.16667
51.08,6.66667
51.12,7.5
51.16,5
51.2,5
51.24,5
51.28,5.83333
51.32,5.83333
51.36,4.16667
51.4,5.83333
51.44,4.16667
51.48,10
51.52,14.1667
51.56,10.8333
51.6,20
51.64,26.6667
51.68,28.3333
51.72,35
51.76,20.8333
51.8,22.5
51.84,20
51.88,12.5
51.92,12.5
51.96,9.16667
52,10
52.04,9.16667
52.08,11.6667
52.12,10.8333
52.16,8.33333
52.2,7.5
52.24,7.5
52.28,5.83333
52.32,5
52.36,5.83333
52.4,5.83333
52.44,2.5
52.48,5
52.52,5
52.56,3.33333
52.6,4.16667
52.64,6.66667
52.68,5.83333
52.72,6.66667
52.76,4.16667
52.8,6.66667
52.84,6.66667
52.88,7.5
52.92,5.83333
52.96,5
53,7.5
53.04,7.5
53.08,10.8333
53.12,8.33333
53.16,8.33333
53.2,8.33333
53.24,10
53.28,7.5
53.32,13.3333
53.36,8.33333
53.4,10
53.44,10.8333
53.48,9.16667
53.52,9.16667
53.56,7.5
53.6,15
53.64,15
53.68,29.1667
53.72,39.1667
53.76,50.8333
53.8,50
53.84,39.1667
53.88,35.8333
53.92,36.6667
53.96,31.6667
54,23.3333
54.04,13.3333
54.08,12.5
54.12,15.8333
54.16,8.33333
54.2,5.83333
54.24,6.66667
54.28,7.5
54.32,5.83333
54.36,4.16667
54.4,5.83333
54.44,7.5
54.48,5.83333
54.52,10
54.56,6.66667
54.6,10
54.64,13.3333
54.68,13.3333
54.72,10
54.76,11.6667
54.8,11.6667
54.84,13.3333
54.88,8.33333
54.92,10
54.96,10
55,9.16667
55.04,5.83333
55.08,5.83333
55.12,7.5
55.16,6.66667
55.2,8.33333
55.24,7.5
55.28,9.16667
55.32,6.66667
55.36,10
55.4,13.3333
55.44,13.3333
55.48,25
55.52,37.5
55.56,32.5
55.6,33.3333
55.64,23.3333
55.68,29.1667
55.72,29.1667
55.76,19.1667
55.8,14.1667
55.84,8.33333
55.88,7.5
55.92,6.66667
55.96,7.5
56,8.33333
56.04,5.83333
56.08,10
56.12,7.5
56.16,3.33333
56.2,2.5
56.24,8.33333
56.28,6.66667
56.32,5.83333
56.36,4.16667
56.4,7.5
56.44,6.66667
56.48,5.83333
56.52,15.8333
56.56,10
56.6,9.16667
56.64,14.1667
56.68,10.8333
56.72,4.16667
56.76,8.33333
56.8,3.33333
56.84,8.33333
56.88,8.33333
56.92,7.5
56.96,5.83333
57,3.33333
57.04,7.5
57.08,10
57.12,8.33333
57.16,4.16667
57.2,5.83333
57.24,8.33333
57.28,4.16667
57.32,7.5
57.36,10.8333
57.4,3.33333
57.44,2.5
57.48,4.16667
57.52,5.83333
57.56,5.83333
57.6,5.83333
57.64,6.66667
57.68,9.16667
57.72,9.16667
57.76,15.8333
57.8,12.5
57.84,10.8333
57.88,6.66667
57.92,9.16667
57.96,8.33333
58,6.66667
58.04,10
58.08,7.5
58.12,15
58.16,17.5
58.2,32.5
58.24,43.3333
58.28,64.1667
58.32,82.5
58.36,63.3333
58.4,61.6667
58.44,51.6667
58.48,59.1667
58.52,28.3333
58.56,30
58.6,12.5
58.64,5.83333
58.68,10.8333
58.72,6.66667
58.76,8.33333
58.8,7.5
58.84,9.16667
58.88,9.16667
58.92,6.66667
58.96,6.66667
59,5
59.04,10
59.08,3.33333
59.12,4.16667
59.16,0.833333
59.2,8.33333
59.24,4.16667
59.28,5.83333
59.32,6.66667
59.36,2.5
59.4,8.33333
59.44,5
59.48,9.16667
59.52,10.8333
59.56,8.33333
59.6,10.8333
59.64,9.16667
59.68,3.33333
59.72,9.16667
59.76,6.66667
59.8,7.5
59.84,5
59.88,13.3333
59.92,5.83333
59.96,5.83333
60,3.33333