File: XRD_graph/XRD_data/Li2ZnSn3O8_XRD/Li2Zn08Ga02Sn3O8_20241009.txt
2theta,Intensity
10,7.5
10.04,5.83333
10.08,10
10.12,7.5
10.16,10
10.2,6.66667
10.24,7.5
10.28,6.66667
10.32,8.33333
10.36,10
10.4,7.5
10.44,4.16667
10.48,5.83333
10.52,4.16667
10.56,5
10.6,8.33333
10.64,7.5
10.68,5.83333
10.72,6.66667
10.76,9.16667
10.8,10
10.84,6.66667
10.88,5.83333
10.92,8.33333
10.96,5.83333
11,8.33333
11.04,6.66667
11.08,10.8333
11.12,4.16667
11.16,5
11.2,4.16667
11.24,8.33333
11.28,5
11.32,7.5
11.36,7.5
11.4,6.66667
11.44,6.66667
11.48,4.16667
11.52,5.83333
11.56,8.33333
11.6,8.33333
11.64,5.83333
11.68,5
11.72,9.16667
11.76,7.5
11.8,4.16667
11.84,5.83333
11.88,8.33333
11.92,7.5
11.96,7.5
12,10
12.04,6.66667
12.08,11.6667
12.12,5.83333
12.16,7.5
12.2,10
12.24,10.8333
12.28,8.33333
12.32,9.16667
12.36,11.6667
12.4,8.33333
12.44,5.83333
12.48,13.3333
12.52,8.33333
12.56,9.16667
12.6,11.6667
12.64,11.6667
12.68,7.5
12.72,11.6667
12.76,11.6667
12.8,10
12.84,8.33333
12.88,8.33333
12.92,10
12.96,18.3333
13,14.1667
13.04,20.8333
13.08,25.8333
13.12,30
13.16,26.6667
13.2,17.5
13.24,13.3333
13.28,9.16667
13.32,9.16667
13.36,10
13.4,14.1667
13.44,12.5
13.48,10
13.52,11.6667
13.56,9.16667
13.6,6.66667
13.64,6.66667
13.68,8.33333
13.72,7.5
13.76,9.16667
13.8,10.8333
13.84,7.5
13.88,8.33333
13.92,11.6667
13.96,12.5
14,5
14.04,3.33333
14.08,5.83333
14.12,7.5
14.16,5.83333
14.2,5
14.24,5
14.28,8.33333
14.32,7.5
14.36,4.16667
14.4,8.33333
14.44,6.66667
14.48,10.8333
14.52,6.66667
14.56,4.16667
14.6,8.33333
14.64,3.33333
14.68,7.5
14.72,3.33333
14.76,11.6667
14.8,7.5
14.84,11.6667
14.88,12.5
14.92,5
14.96,6.66667
15,8.33333
15.04,5
15.08,10
15.12,8.33333
15.16,11.6667
15.2,11.6667
15.24,9.16667
15.28,10.8333
15.32,5.83333
15.36,8.33333
15.4,14.1667
15.44,10.8333
15.48,5.83333
15.52,9.16667
15.56,10.8333
15.6,7.5
15.64,7.5
15.68,6.66667
15.72,9.16667
15.76,8.33333
15.8,7.5
15.84,13.3333
15.88,8.33333
15.92,12.5
15.96,13.3333
16,10.8333
16.04,11.6667
16.08,16.6667
16.12,8.33333
16.16,15.8333
16.2,14.1667
16.24,10.8333
16.28,15.8333
16.32,13.3333
16.36,13.3333
16.4,16.6667
16.44,10.8333
16.48,14.1667
16.52,13.3333
16.56,16.6667
16.6,20
16.64,30.8333
16.68,45
16.72,52.5
16.76,70.8333
16.8,70.8333
16.84,46.6667
16.88,27.5
16.92,28.3333
16.96,17.5
17,21.6667
17.04,16.6667
17.08,18.3333
17.12,13.3333
17.16,13.3333
17.2,22.5
17.24,20.8333
17.28,17.5
17.32,21.6667
17.36,19.1667
17.4,18.3333
17.44,19.1667
17.48,20
17.52,22.5
17.56,25.8333
17.6,18.3333
17.64,22.5
17.68,34.1667
17.72,50
17.76,54.1667
17.8,79.1667
17.84,83.3333
17.88,95
17.92,72.5
17.96,43.3333
18,25
18.04,15.8333
18.08,17.5
18.12,12.5
18.16,13.3333
18.2,21.6667
18.24,14.1667
18.28,12.5
18.32,13.3333
18.36,9.16667
18.4,12.5
18.44,15
18.48,18.3333
18.52,12.5
18.56,10.8333
18.6,15.8333
18.64,11.6667
18.68,15.8333
18.72,19.1667
18.76,21.6667
18.8,30
18.84,50
18.88,64.1667
18.92,92.5
18.96,134.167
19,208.333
19.04,240
19.08,211.667
19.12,156.667
19.16,73.3333
19.2,50
19.24,48.3333
19.28,58.3333
19.32,81.6667
19.36,114.167
19.4,130.833
19.44,139.167
19.48,108.333
19.52,65
19.56,24.1667
19.6,26.6667
19.64,22.5
19.68,12.5
19.72,15
19.76,14.1667
19.8,19.1667
19.84,15.8333
19.88,12.5
19.92,10.8333
19.96,14.1667
20,14.1667
20.04,13.3333
20.08,11.6667
20.12,9.16667
20.16,11.6667
20.2,15.8333
20.24,17.5
20.28,25.8333
20.32,30.8333
20.36,30.8333
20.4,35.8333
20.44,29.1667
20.48,15.8333
20.52,12.5
20.56,14.1667
20.6,10.8333
20.64,7.5
20.68,10
20.72,9.16667
20.76,7.5
20.8,5.83333
20.84,13.3333
20.88,7.5
20.92,9.16667
20.96,12.5
21,15
21.04,15.8333
21.08,16.6667
21.12,20.8333
21.16,22.5
21.2,32.5
21.24,48.3333
21.28,67.5
21.32,115.833
21.36,150
21.4,192.5
21.44,202.5
21.48,157.5
21.52,85
21.56,35
21.6,25.8333
21.64,21.6667
21.68,15.8333
21.72,18.3333
21.76,13.3333
21.8,13.3333
21.84,12.5
21.88,12.5
21.92,10
21.96,10.8333
22,10.8333
22.04,7.5
22.08,11.6667
22.12,15
22.16,10
22.2,15
22.24,11.6667
22.28,9.16667
22.32,7.5
22.36,10
22.4,10.8333
22.44,7.5
22.48,10
22.52,8.33333
22.56,9.16667
22.6,10
22.64,9.16667
22.68,13.3333
22.72,10
22.76,7.5
22.8,6.66667
22.84,5
22.88,12.5
22.92,9.16667
22.96,7.5
23,5.83333
23.04,7.5
23.08,10
23.12,10
23.16,10.8333
23.2,7.5
23.24,7.5
23.28,6.66667
23.32,7.5
23.36,7.5
23.4,7.5
23.44,11.6667
23.48,9.16667
23.52,5
23.56,6.66667
23.6,11.6667
23.64,8.33333
23.68,7.5
23.72,4.16667
23.76,7.5
23.8,9.16667
23.84,6.66667
23.88,11.6667
23.92,10
23.96,7.5
24,12.5
24.04,7.5
24.08,13.3333
24.12,13.3333
24.16,12.5
24.2,15
24.24,17.5
24.28,20.8333
24.32,19.1667
24.36,20.8333
24.4,35.8333
24.44,43.3333
24.48,70.8333
24.52,117.5
24.56,174.167
24.6,250
24.64,372.5
24.68,380.833
24.72,285
24.76,183.333
24.8,80.8333
24.84,41.6667
24.88,35.8333
24.92,28.3333
24.96,29.1667
25,20
25.04,18.3333
25.08,15.8333
25.12,14.1667
25.16,12.5
25.2,10.8333
25.24,15.8333
25.28,12.5
25.32,11.6667
25.36,10.8333
25.4,10
25.44,18.3333
25.48,10.8333
25.52,14.1667
25.56,15.8333
25.6,5
25.64,15
25.68,16.6667
25.72,21.6667
25.76,28.3333
25.8,38.3333
25.84,46.6667
25.88,29.1667
25.92,31.6667
25.96,16.6667
26,10.8333
26.04,15
26.08,25.8333
26.12,15.8333
26.16,20
26.2,20
26.24,21.6667
26.28,26.6667
26.32,39.1667
26.36,72.5
26.4,115.833
26.44,175
26.48,248.333
26.52,306.667
26.56,277.5
26.6,186.667
26.64,120.833
26.68,69.1667
26.72,35
26.76,29.1667
26.8,17.5
26.84,26.6667
26.88,30
26.92,21.6667
26.96,20
27,11.6667
27.04,10.8333
27.08,18.3333
27.12,10
27.16,19.1667
27.2,14.1667
27.24,22.5
27.28,31.6667
27.32,48.3333
27.36,50.8333
27.4,53.3333
27.44,50.8333
27.48,31.6667
27.52,30
27.56,17.5
27.6,17.5
27.64,8.33333
27.68,12.5
27.72,13.3333
27.76,12.5
27.8,5
27.84,14.1667
27.88,12.5
27.92,17.5
27.96,9.16667
28,7.5
28.04,11.6667
28.08,16.6667
28.12,8.33333
28.16,10.8333
28.2,7.5
28.24,10
28.28,9.16667
28.32,12.5
28.36,8.33333
28.4,9.16667
28.44,12.5
28.48,10.8333
28.52,13.3333
28.56,6.66667
28.6,7.5
28.64,14.1667
28.68,18.3333
28.72,14.1667
28.76,11.6667
28.8,14.1667
28.84,15.8333
28.88,14.1667
28.92,14.1667
28.96,12.5
29,12.5
29.04,11.6667
29.08,13.3333
29.12,15
29.16,12.5
29.2,19.1667
29.24,25
29.28,40.8333
29.32,78.3333
29.36,102.5
29.4,109.167
29.44,76.6667
29.48,45
29.52,27.5
29.56,15
29.6,15
29.64,12.5
29.68,10
29.72,10.8333
29.76,10.8333
29.8,9.16667
29.84,6.66667
29.88,5
29.92,11.6667
29.96,9.16667
30,8.33333
30.04,9.16667
30.08,10
30.12,9.16667
30.16,11.6667
30.2,7.5
30.24,11.6667
30.28,13.3333
30.32,9.16667
30.36,8.33333
30.4,10.8333
30.44,4.16667
30.48,13.3333
30.52,10.8333
30.56,7.5
30.6,6.66667
30.64,7.5
30.68,11.6667
30.72,6.66667
30.76,10
30.8,8.33333
30.84,5.83333
30.88,10
30.92,9.16667
30.96,9.16667
31,7.5
31.04,10.8333
31.08,7.5
31.12,9.16667
31.16,5.83333
31.2,8.33333
31.24,15
31.28,14.1667
31.32,10.8333
31.36,15
31.4,13.3333
31.44,15
31.48,17.5
31.52,29.1667
31.56,40.8333
31.6,64.1667
31.64,70.8333
31.68,63.3333
31.72,55.8333
31.76,56.6667
31.8,47.5
31.84,65.8333
31.88,96.6667
31.92,197.5
31.96,300
32,396.667
32.04,405
32.08,354.167
32.12,230.833
32.16,125
32.2,60
32.24,39.1667
32.28,25
32.32,29.1667
32.36,21.6667
32.4,20
32.44,16.6667
32.48,15
32.52,17.5
32.56,15
32.6,13.3333
32.64,10
32.68,10
32.72,10.8333
32.76,10
32.8,10.8333
32.84,9.16667
32.88,14.1667
32.92,15
32.96,15
33,13.3333
33.04,12.5
33.08,9.16667
33.12,9.16667
33.16,12.5
33.2,12.5
33.24,11.6667
33.28,15.8333
33.32,8.33333
33.36,21.6667
33.4,28.3333
33.44,32.5
33.48,46.6667
33.52,65
33.56,60.8333
33.6,60.8333
33.64,60.8333
33.68,70
33.72,102.5
33.76,137.5
33.8,160
33.84,152.5
33.88,120
33.92,92.5
33.96,88.3333
34,127.5
34.04,168.333
34.08,184.167
34.12,160
34.16,125
34.2,94.1667
34.24,47.5
34.28,41.6667
34.32,36.6667
34.36,36.6667
34.4,44.1667
34.44,55.8333
34.48,76.6667
34.52,149.167
34.56,265
34.6,441.667
34.64,575
34.68,582.5
34.72,425.833
34.76,311.667
34.8,161.667
34.84,76.6667
34.88,48.3333
34.92,40.8333
34.96,47.5
35,48.3333
35.04,40
35.08,47.5
35.12,58.3333
35.16,99.1667
35.2,188.333
35.24,279.167
35.28,412.5
35.32,422.5
35.36,362.5
35.4,245.833
35.44,145.833
35.48,79.1667
35.52,43.3333
35.56,36.6667
35.6,20
35.64,26.6667
35.68,18.3333
35.72,23.3333
35.76,14.1667
35.8,11.6667
35.84,10
35.88,12.5
35.92,14.1667
35.96,14.1667
36,17.5
36.04,11.6667
36.08,16.6667
36.12,20.8333
36.16,19.1667
36.2,25
36.24,39.1667
36.28,70
36.32,89.1667
36.36,65
36.4,56.6667
36.44,40.8333
36.48,28.3333
36.52,12.5
36.56,10.8333
36.6,9.16667
36.64,13.3333
36.68,13.3333
36.72,12.5
36.76,12.5
36.8,12.5
36.84,10
36.88,7.5
36.92,8.33333
36.96,7.5
37,10.8333
37.04,5
37.08,7.5
37.12,8.33333
37.16,8.33333
37.2,9.16667
37.24,5
37.28,7.5
37.32,5
37.36,4.16667
37.4,8.33333
37.44,5
37.48,7.5
37.52,7.5
37.56,10.8333
37.6,10
37.64,13.3333
37.68,20
37.72,30.8333
37.76,46.6667
37.8,50
37.84,60
37.88,55
37.92,50.8333
37.96,41.6667
38,20
38.04,25.8333
38.08,15
38.12,10
38.16,5.83333
38.2,12.5
38.24,7.5
38.28,5.83333
38.32,6.66667
38.36,5.83333
38.4,9.16667
38.44,7.5
38.48,10
38.52,11.6667
38.56,10.8333
38.6,19.1667
38.64,26.6667
38.68,40.8333
38.72,74.1667
38.76,110
38.8,109.167
38.84,98.3333
38.88,60.8333
38.92,50
38.96,26.6667
39,27.5
39.04,16.6667
39.08,9.16667
39.12,10
39.16,6.66667
39.2,10.8333
39.24,5.83333
39.28,5
39.32,10.8333
39.36,7.5
39.4,6.66667
39.44,14.1667
39.48,19.1667
39.52,22.5
39.56,24.1667
39.6,23.3333
39.64,22.5
39.68,20.8333
39.72,10.8333
39.76,12.5
39.8,6.66667
39.84,8.33333
39.88,5.83333
39.92,6.66667
39.96,4.16667
40,6.66667
40.04,10.8333
40.08,10.8333
40.12,10.8333
40.16,2.5
40.2,6.66667
40.24,8.33333
40.28,10
40.32,10
40.36,4.16667
40.4,6.66667
40.44,10.8333
40.48,6.66667
40.52,10
40.56,20
40.6,28.3333
40.64,34.1667
40.68,38.3333
40.72,30
40.76,25.8333
40.8,15
40.84,9.16667
40.88,15.8333
40.92,5.83333
40.96,6.66667
41,10.8333
41.04,9.16667
41.08,4.16667
41.12,9.16667
41.16,5
41.2,8.33333
41.24,5.83333
41.28,10
41.32,1.66667
41.36,14.1667
41.4,9.16667
41.44,16.6667
41.48,28.3333
41.52,23.3333
41.56,44.1667
41.6,30
41.64,22.5
41.68,18.3333
41.72,20
41.76,13.3333
41.8,11.6667
41.84,10
41.88,5.83333
41.92,8.33333
41.96,8.33333
42,4.16667
42.04,7.5
42.08,5.83333
42.12,5
42.16,4.16667
42.2,5
42.24,5
42.28,3.33333
42.32,4.16667
42.36,5.83333
42.4,5.83333
42.44,8.33333
42.48,5
42.52,4.16667
42.56,10
42.6,7.5
42.64,5.83333
42.68,5.83333
42.72,4.16667
42.76,5
42.8,5.83333
42.84,4.16667
42.88,3.33333
42.92,3.33333
42.96,5
43,5
43.04,5.83333
43.08,6.66667
43.12,5.83333
43.16,3.33333
43.2,5
43.24,4.16667
43.28,5.83333
43.32,4.16667
43.36,9.16667
43.4,8.33333
43.44,6.66667
43.48,5.83333
43.52,5.83333
43.56,10.8333
43.6,7.5
43.64,11.6667
43.68,17.5
43.72,27.5
43.76,27.5
43.8,29.1667
43.84,30.8333
43.88,35.8333
43.92,45.8333
43.96,65.8333
44,118.333
44.04,165.833
44.08,161.667
44.12,134.167
44.16,105.833
44.2,80.8333
44.24,45
44.28,24.1667
44.32,17.5
44.36,15.8333
44.4,11.6667
44.44,14.1667
44.48,7.5
44.52,10
44.56,6.66667
44.6,6.66667
44.64,5.83333
44.68,8.33333
44.72,9.16667
44.76,3.33333
44.8,5.83333
44.84,3.33333
44.88,5.83333
44.92,7.5
44.96,5
45,7.5
45.04,9.16667
45.08,16.6667
45.12,21.6667
45.16,15
45.2,22.5
45.24,20
45.28,13.3333
45.32,12.5
45.36,9.16667
45.4,9.16667
45.44,7.5
45.48,8.33333
45.52,7.5
45.56,5
45.6,12.5
45.64,14.1667
45.68,12.5
45.72,12.5
45.76,11.6667
45.8,10
45.84,10
45.88,9.16667
45.92,5
45.96,4.16667
46,2.5
46.04,5.83333
46.08,4.16667
46.12,6.66667
46.16,8.33333
46.2,7.5
46.24,5
46.28,6.66667
46.32,10.8333
46.36,5
46.4,5
46.44,9.16667
46.48,8.33333
46.52,14.1667
46.56,15.8333
46.6,30
46.64,32.5
46.68,24.1667
46.72,22.5
46.76,17.5
46.8,13.3333
46.84,9.16667
46.88,6.66667
46.92,5
46.96,7.5
47,5
47.04,4.16667
47.08,6.66667
47.12,5
47.16,5
47.2,2.5
47.24,5.83333
47.28,4.16667
47.32,3.33333
47.36,10
47.4,9.16667
47.44,11.6667
47.48,10
47.52,7.5
47.56,5.83333
47.6,9.16667
47.64,7.5
47.68,9.16667
47.72,5
47.76,5.83333
47.8,7.5
47.84,2.5
47.88,5.83333
47.92,3.33333
47.96,3.33333
48,5
48.04,5
48.08,7.5
48.12,9.16667
48.16,4.16667
48.2,3.33333
48.24,9.16667
48.28,8.33333
48.32,3.33333
48.36,5
48.4,8.33333
48.44,13.3333
48.48,8.33333
48.52,12.5
48.56,27.5
48.6,24.1667
48.64,26.6667
48.68,12.5
48.72,18.3333
48.76,12.5
48.8,15.8333
48.84,10
48.88,3.33333
48.92,11.6667
48.96,10.8333
49,8.33333
49.04,6.66667
49.08,11.6667
49.12,17.5
49.16,20.8333
49.2,30.8333
49.24,42.5
49.28,35.8333
49.32,51.6667
49.36,81.6667
49.4,107.5
49.44,111.667
49.48,99.1667
49.52,80.8333
49.56,67.5
49.6,54.1667
49.64,31.6667
49.68,23.3333
49.72,12.5
49.76,6.66667
49.8,10.8333
49.84,7.5
49.88,8.33333
49.92,9.16667
49.96,8.33333
50,10.8333
50.04,11.6667
50.08,15.8333
50.12,10.8333
50.16,17.5
50.2,18.3333
50.24,20.8333
50.28,28.3333
50.32,22.5
50.36,24.1667
50.4,26.6667
50.44,21.6667
50.48,20.8333
50.52,17.5
50.56,24.1667
50.6,39.1667
50.64,75.8333
50.68,101.667
50.72,100.833
50.76,108.333
50.8,80.8333
50.84,66.6667
50.88,54.1667
50.92,41.6667
50.96,30.8333
51,31.6667
51.04,25
51.08,14.1667
51.12,15.8333
51.16,14.1667
51.2,10.8333
51.24,8.33333
51.28,12.5
51.32,11.6667
51.36,14.1667
51.4,10.8333
51.44,10
51.48,10.8333
51.52,12.5
51.56,24.1667
51.6,35.8333
51.64,72.5
51.68,113.333
51.72,120
51.76,92.5
51.8,92.5
51.84,71.6667
51.88,55.8333
51.92,43.3333
51.96,29.1667
52,20
52.04,17.5
52.08,16.6667
52.12,12.5
52.16,22.5
52.2,34.1667
52.24,20.8333
52.28,18.3333
52.32,18.3333
52.36,16.6667
52.4,16.6667
52.44,7.5
52.48,10
52.52,8.33333
52.56,5.83333
52.6,8.33333
52.64,6.66667
52.68,9.16667
52.72,5.83333
52.76,4.16667
52.8,5.83333
52.84,5
52.88,7.5
52.92,7.5
52.96,8.33333
53,9.16667
53.04,5.83333
53.08,6.66667
53.12,10.8333
53.16,15.8333
53.2,16.6667
53.24,20
53.28,22.5
53.32,17.5
53.36,18.3333
53.4,31.6667
53.44,23.3333
53.48,24.1667
53.52,19.1667
53.56,18.3333
53.6,26.6667
53.64,29.1667
53.68,33.3333
53.72,37.5
53.76,48.3333
53.8,85
53.84,135
53.88,189.167
53.92,193.333
53.96,152.5
54,129.167
54.04,118.333
54.08,117.5
54.12,89.1667
54.16,58.3333
54.2,38.3333
54.24,34.1667
54.28,25
54.32,21.6667
54.36,14.1667
54.4,17.5
54.44,14.1667
54.48,10
54.52,9.16667
54.56,11.6667
54.6,16.6667
54.64,29.1667
54.68,30.8333
54.72,39.1667
54.76,30.8333
54.8,36.6667
54.84,45
54.88,34.1667
54.92,26.6667
54.96,22.5
55,17.5
55.04,14.1667
55.08,8.33333
55.12,9.16667
55.16,15.8333
55.2,10
55.24,10
55.28,5.83333
55.32,10
55.36,13.3333
55.4,15
55.44,13.3333
55.48,19.1667
55.52,26.6667
55.56,34.1667
55.6,78.3333
55.64,98.3333
55.68,131.667
55.72,115.833
55.76,83.3333
55.8,102.5
55.84,77.5
55.88,55
55.92,35
55.96,24.1667
56,22.5
56.04,11.6667
56.08,11.6667
56.12,10
56.16,5.83333
56.2,9.16667
56.24,15
56.28,8.33333
56.32,10
56.36,9.16667
56.4,7.5
56.44,12.5
56.48,6.66667
56.52,9.16667
56.56,11.6667
56.6,20
56.64,16.6667
56.68,25
56.72,25
56.76,19.1667
56.8,13.3333
56.84,17.5
56.88,14.1667
56.92,9.16667
56.96,6.66667
57,12.5
57.04,11.6667
57.08,12.5
57.12,9.16667
57.16,10
57.2,11.6667
57.24,10.8333
57.28,12.5
57.32,6.66667
57.36,8.33333
57.4,5
57.44,2.5
57.48,6.66667
57.52,4.16667
57.56,4.16667
57.6,11.6667
57.64,13.3333
57.68,8.33333
57.72,15
57.76,20.8333
57.8,21.6667
57.84,22.5
57.88,25
57.92,31.6667
57.96,25
58,22.5
58.04,19.1667
58.08,25
58.12,18.3333
58.16,18.3333
58.2,30.8333
58.24,31.6667
58.28,60.8333
58.32,75.8333
58.36,176.667
58.4,214.167
58.44,307.5
58.48,252.5
58.52,185.833
58.56,181.667
58.6,190.833
58.64,123.333
58.68,92.5
58.72,46.6667
58.76,35.8333
58.8,18.3333
58.84,20.8333
58.88,20
58.92,12.5
58.96,14.1667
59,8.33333
59.04,8.33333
59.08,8.33333
59.12,10.8333
59.16,9.16667
59.2,13.3333
59.24,6.66667
59.28,6.66667
59.32,7.5
59.36,6.66667
59.4,10.8333
59.44,8.33333
59.48,10
59.52,11.6667
59.56,11.6667
59.6,13.3333
59.64,15
59.68,18.3333
59.72,20.8333
59.76,12.5
59.8,16.6667
59.84,15.8333
59.88,15.8333
59.92,10.8333
59.96,13.3333
60,12.5