File: XRD_graph/XRD_data/Li2ZnSn3O8_XRD/Li2ZnSn3O8_2ndyaki_20241022.txt
2theta,Intensity
10,3.33333
10.04,7.5
10.08,6.66667
10.12,5
10.16,5.83333
10.2,4.16667
10.24,8.33333
10.28,4.16667
10.32,7.5
10.36,5.83333
10.4,4.16667
10.44,5
10.48,5.83333
10.52,7.5
10.56,3.33333
10.6,3.33333
10.64,3.33333
10.68,7.5
10.72,2.5
10.76,6.66667
10.8,7.5
10.84,5.83333
10.88,9.16667
10.92,5.83333
10.96,2.5
11,5.83333
11.04,10.8333
11.08,5
11.12,5
11.16,4.16667
11.2,4.16667
11.24,5.83333
11.28,4.16667
11.32,3.33333
11.36,5
11.4,4.16667
11.44,2.5
11.48,5
11.52,5.83333
11.56,5
11.6,5
11.64,5
11.68,5.83333
11.72,5
11.76,4.16667
11.8,3.33333
11.84,4.16667
11.88,6.66667
11.92,5
11.96,6.66667
12,4.16667
12.04,5.83333
12.08,5
12.12,10.8333
12.16,6.66667
12.2,4.16667
12.24,4.16667
12.28,5
12.32,5.83333
12.36,8.33333
12.4,5.83333
12.44,5
12.48,9.16667
12.52,7.5
12.56,9.16667
12.6,10
12.64,5
12.68,10.8333
12.72,8.33333
12.76,7.5
12.8,8.33333
12.84,8.33333
12.88,5.83333
12.92,6.66667
12.96,8.33333
13,6.66667
13.04,11.6667
13.08,7.5
13.12,25
13.16,20.8333
13.2,21.6667
13.24,25
13.28,27.5
13.32,20
13.36,10
13.4,10
13.44,7.5
13.48,9.16667
13.52,8.33333
13.56,11.6667
13.6,8.33333
13.64,8.33333
13.68,5.83333
13.72,11.6667
13.76,6.66667
13.8,5.83333
13.84,7.5
13.88,5
13.92,7.5
13.96,5
14,9.16667
14.04,4.16667
14.08,7.5
14.12,7.5
14.16,6.66667
14.2,4.16667
14.24,3.33333
14.28,7.5
14.32,5.83333
14.36,2.5
14.4,6.66667
14.44,5.83333
14.48,4.16667
14.52,4.16667
14.56,7.5
14.6,10
14.64,6.66667
14.68,10.8333
14.72,5
14.76,6.66667
14.8,5
14.84,9.16667
14.88,5.83333
14.92,5
14.96,5.83333
15,6.66667
15.04,6.66667
15.08,6.66667
15.12,13.3333
15.16,7.5
15.2,4.16667
15.24,6.66667
15.28,7.5
15.32,8.33333
15.36,0.833333
15.4,5
15.44,2.5
15.48,4.16667
15.52,5.83333
15.56,5.83333
15.6,5
15.64,6.66667
15.68,5
15.72,5
15.76,5.83333
15.8,7.5
15.84,8.33333
15.88,12.5
15.92,7.5
15.96,6.66667
16,14.1667
16.04,11.6667
16.08,10.8333
16.12,9.16667
16.16,9.16667
16.2,5
16.24,7.5
16.28,14.1667
16.32,11.6667
16.36,10
16.4,7.5
16.44,9.16667
16.48,9.16667
16.52,10
16.56,13.3333
16.6,15.8333
16.64,19.1667
16.68,23.3333
16.72,24.1667
16.76,35
16.8,50
16.84,54.1667
16.88,60
16.92,49.1667
16.96,43.3333
17,25.8333
17.04,14.1667
17.08,20.8333
17.12,15.8333
17.16,10.8333
17.2,17.5
17.24,19.1667
17.28,20.8333
17.32,15.8333
17.36,19.1667
17.4,15.8333
17.44,15.8333
17.48,18.3333
17.52,14.1667
17.56,13.3333
17.6,17.5
17.64,17.5
17.68,15.8333
17.72,18.3333
17.76,22.5
17.8,30.8333
17.84,38.3333
17.88,54.1667
17.92,78.3333
17.96,79.1667
18,70.8333
18.04,58.3333
18.08,37.5
18.12,25.8333
18.16,15
18.2,16.6667
18.24,11.6667
18.28,14.1667
18.32,14.1667
18.36,13.3333
18.4,13.3333
18.44,10.8333
18.48,9.16667
18.52,13.3333
18.56,10
18.6,9.16667
18.64,12.5
18.68,12.5
18.72,10
18.76,13.3333
18.8,16.6667
18.84,15
18.88,25.8333
18.92,32.5
18.96,42.5
19,75
19.04,125
19.08,160
19.12,182.5
19.16,180
19.2,154.167
19.24,100
19.28,51.6667
19.32,38.3333
19.36,50
19.4,76.6667
19.44,86.6667
19.48,99.1667
19.52,129.167
19.56,110
19.6,66.6667
19.64,33.3333
19.68,21.6667
19.72,15
19.76,10
19.8,11.6667
19.84,10.8333
19.88,10
19.92,8.33333
19.96,10
20,8.33333
20.04,11.6667
20.08,10
20.12,8.33333
20.16,9.16667
20.2,10
20.24,8.33333
20.28,8.33333
20.32,10.8333
20.36,18.3333
20.4,19.1667
20.44,20.8333
20.48,25
20.52,20.8333
20.56,18.3333
20.6,14.1667
20.64,7.5
20.68,10.8333
20.72,7.5
20.76,9.16667
20.8,8.33333
20.84,6.66667
20.88,9.16667
20.92,6.66667
20.96,6.66667
21,8.33333
21.04,10.8333
21.08,8.33333
21.12,12.5
21.16,10.8333
21.2,12.5
21.24,18.3333
21.28,20.8333
21.32,34.1667
21.36,42.5
21.4,88.3333
21.44,125
21.48,160.833
21.52,169.167
21.56,147.5
21.6,102.5
21.64,56.6667
21.68,29.1667
21.72,18.3333
21.76,17.5
21.8,17.5
21.84,9.16667
21.88,10.8333
21.92,7.5
21.96,8.33333
22,7.5
22.04,8.33333
22.08,7.5
22.12,14.1667
22.16,7.5
22.2,10
22.24,6.66667
22.28,11.6667
22.32,9.16667
22.36,6.66667
22.4,11.6667
22.44,10.8333
22.48,7.5
22.52,8.33333
22.56,9.16667
22.6,10
22.64,9.16667
22.68,10.8333
22.72,7.5
22.76,8.33333
22.8,7.5
22.84,5.83333
22.88,5.83333
22.92,8.33333
22.96,7.5
23,9.16667
23.04,9.16667
23.08,3.33333
23.12,9.16667
23.16,4.16667
23.2,6.66667
23.24,6.66667
23.28,5
23.32,5.83333
23.36,4.16667
23.4,7.5
23.44,8.33333
23.48,7.5
23.52,4.16667
23.56,6.66667
23.6,6.66667
23.64,6.66667
23.68,6.66667
23.72,6.66667
23.76,7.5
23.8,5
23.84,6.66667
23.88,6.66667
23.92,10
23.96,7.5
24,8.33333
24.04,10
24.08,9.16667
24.12,9.16667
24.16,10
24.2,9.16667
24.24,7.5
24.28,11.6667
24.32,10
24.36,14.1667
24.4,16.6667
24.44,15.8333
24.48,18.3333
24.52,42.5
24.56,53.3333
24.6,109.167
24.64,140.833
24.68,229.167
24.72,315.833
24.76,341.667
24.8,307.5
24.84,195
24.88,105.833
24.92,48.3333
24.96,30
25,25
25.04,19.1667
25.08,16.6667
25.12,20.8333
25.16,13.3333
25.2,13.3333
25.24,14.1667
25.28,9.16667
25.32,10.8333
25.36,11.6667
25.4,13.3333
25.44,10
25.48,9.16667
25.52,7.5
25.56,11.6667
25.6,5.83333
25.64,14.1667
25.68,12.5
25.72,10
25.76,13.3333
25.8,17.5
25.84,27.5
25.88,40
25.92,43.3333
25.96,39.1667
26,26.6667
26.04,24.1667
26.08,17.5
26.12,13.3333
26.16,11.6667
26.2,14.1667
26.24,15.8333
26.28,18.3333
26.32,20
26.36,20
26.4,21.6667
26.44,50
26.48,67.5
26.52,120.833
26.56,175.833
26.6,274.167
26.64,260.833
26.68,273.333
26.72,157.5
26.76,95
26.8,64.1667
26.84,21.6667
26.88,14.1667
26.92,21.6667
26.96,13.3333
27,18.3333
27.04,12.5
27.08,20
27.12,5.83333
27.16,10.8333
27.2,15.8333
27.24,13.3333
27.28,17.5
27.32,27.5
27.36,36.6667
27.4,40.8333
27.44,70.8333
27.48,54.1667
27.52,61.6667
27.56,42.5
27.6,24.1667
27.64,20
27.68,12.5
27.72,9.16667
27.76,9.16667
27.8,10
27.84,9.16667
27.88,12.5
27.92,8.33333
27.96,5.83333
28,9.16667
28.04,9.16667
28.08,10
28.12,4.16667
28.16,10
28.2,3.33333
28.24,11.6667
28.28,13.3333
28.32,8.33333
28.36,9.16667
28.4,10.8333
28.44,8.33333
28.48,6.66667
28.52,8.33333
28.56,7.5
28.6,12.5
28.64,10.8333
28.68,12.5
28.72,10.8333
28.76,5.83333
28.8,12.5
28.84,13.3333
28.88,11.6667
28.92,16.6667
28.96,10.8333
29,14.1667
29.04,9.16667
29.08,10.8333
29.12,9.16667
29.16,13.3333
29.2,18.3333
29.24,15.8333
29.28,15
29.32,36.6667
29.36,40.8333
29.4,70.8333
29.44,84.1667
29.48,102.5
29.52,75.8333
29.56,53.3333
29.6,27.5
29.64,16.6667
29.68,18.3333
29.72,13.3333
29.76,9.16667
29.8,14.1667
29.84,10
29.88,7.5
29.92,5
29.96,14.1667
30,8.33333
30.04,4.16667
30.08,10.8333
30.12,8.33333
30.16,9.16667
30.2,10.8333
30.24,9.16667
30.28,7.5
30.32,7.5
30.36,8.33333
30.4,12.5
30.44,9.16667
30.48,11.6667
30.52,10.8333
30.56,9.16667
30.6,8.33333
30.64,7.5
30.68,6.66667
30.72,8.33333
30.76,7.5
30.8,7.5
30.84,7.5
30.88,6.66667
30.92,11.6667
30.96,9.16667
31,12.5
31.04,7.5
31.08,10.8333
31.12,10.8333
31.16,5.83333
31.2,9.16667
31.24,6.66667
31.28,5.83333
31.32,5
31.36,8.33333
31.4,11.6667
31.44,9.16667
31.48,10.8333
31.52,16.6667
31.56,19.1667
31.6,20
31.64,35
31.68,47.5
31.72,54.1667
31.76,54.1667
31.8,38.3333
31.84,35
31.88,48.3333
31.92,63.3333
31.96,113.333
32,188.333
32.04,290
32.08,372.5
32.12,368.333
32.16,314.167
32.2,211.667
32.24,129.167
32.28,63.3333
32.32,35.8333
32.36,18.3333
32.4,18.3333
32.44,19.1667
32.48,16.6667
32.52,13.3333
32.56,12.5
32.6,9.16667
32.64,11.6667
32.68,10.8333
32.72,10
32.76,8.33333
32.8,9.16667
32.84,8.33333
32.88,15
32.92,10
32.96,7.5
33,9.16667
33.04,6.66667
33.08,10
33.12,10
33.16,8.33333
33.2,7.5
33.24,12.5
33.28,8.33333
33.32,12.5
33.36,10
33.4,10
33.44,17.5
33.48,21.6667
33.52,35
33.56,42.5
33.6,51.6667
33.64,56.6667
33.68,49.1667
33.72,42.5
33.76,50.8333
33.8,57.5
33.84,85
33.88,124.167
33.92,148.333
33.96,149.167
34,120
34.04,123.333
34.08,155.833
34.12,160.833
34.16,176.667
34.2,135.833
34.24,100.833
34.28,62.5
34.32,38.3333
34.36,26.6667
34.4,23.3333
34.44,30.8333
34.48,37.5
34.52,50
34.56,110.833
34.6,199.167
34.64,321.667
34.68,455.833
34.72,513.333
34.76,502.5
34.8,360.833
34.84,217.5
34.88,127.5
34.92,65.8333
34.96,52.5
35,38.3333
35.04,30.8333
35.08,40
35.12,40
35.16,48.3333
35.2,74.1667
35.24,135.833
35.28,227.5
35.32,336.667
35.36,360.833
35.4,375
35.44,281.667
35.48,164.167
35.52,100.833
35.56,53.3333
35.6,29.1667
35.64,27.5
35.68,25
35.72,12.5
35.76,18.3333
35.8,16.6667
35.84,12.5
35.88,12.5
35.92,14.1667
35.96,12.5
36,14.1667
36.04,10.8333
36.08,11.6667
36.12,13.3333
36.16,11.6667
36.2,21.6667
36.24,22.5
36.28,30
36.32,45
36.36,61.6667
36.4,62.5
36.44,68.3333
36.48,53.3333
36.52,36.6667
36.56,20.8333
36.6,11.6667
36.64,13.3333
36.68,13.3333
36.72,13.3333
36.76,10
36.8,16.6667
36.84,12.5
36.88,8.33333
36.92,9.16667
36.96,9.16667
37,4.16667
37.04,4.16667
37.08,3.33333
37.12,7.5
37.16,4.16667
37.2,5.83333
37.24,6.66667
37.28,7.5
37.32,5
37.36,8.33333
37.4,4.16667
37.44,5
37.48,5
37.52,5
37.56,7.5
37.6,5
37.64,7.5
37.68,15
37.72,16.6667
37.76,21.6667
37.8,26.6667
37.84,36.6667
37.88,31.6667
37.92,35
37.96,35
38,41.6667
38.04,39.1667
38.08,30
38.12,20.8333
38.16,22.5
38.2,10
38.24,10
38.28,8.33333
38.32,6.66667
38.36,4.16667
38.4,12.5
38.44,5
38.48,5
38.52,7.5
38.56,5.83333
38.6,10.8333
38.64,8.33333
38.68,23.3333
38.72,30.8333
38.76,65
38.8,61.6667
38.84,79.1667
38.88,81.6667
38.92,61.6667
38.96,45.8333
39,35.8333
39.04,24.1667
39.08,13.3333
39.12,12.5
39.16,10
39.2,9.16667
39.24,8.33333
39.28,10
39.32,7.5
39.36,5.83333
39.4,8.33333
39.44,6.66667
39.48,9.16667
39.52,13.3333
39.56,17.5
39.6,21.6667
39.64,25.8333
39.68,12.5
39.72,12.5
39.76,6.66667
39.8,5.83333
39.84,6.66667
39.88,10
39.92,6.66667
39.96,9.16667
40,8.33333
40.04,5
40.08,6.66667
40.12,8.33333
40.16,8.33333
40.2,7.5
40.24,10.8333
40.28,9.16667
40.32,7.5
40.36,6.66667
40.4,5.83333
40.44,10.8333
40.48,9.16667
40.52,12.5
40.56,10.8333
40.6,11.6667
40.64,30
40.68,26.6667
40.72,35.8333
40.76,24.1667
40.8,22.5
40.84,15
40.88,10
40.92,14.1667
40.96,8.33333
41,7.5
41.04,4.16667
41.08,9.16667
41.12,6.66667
41.16,13.3333
41.2,3.33333
41.24,2.5
41.28,5
41.32,4.16667
41.36,7.5
41.4,7.5
41.44,6.66667
41.48,15
41.52,16.6667
41.56,25
41.6,29.1667
41.64,32.5
41.68,26.6667
41.72,25
41.76,15
41.8,10.8333
41.84,10
41.88,6.66667
41.92,3.33333
41.96,4.16667
42,3.33333
42.04,6.66667
42.08,4.16667
42.12,6.66667
42.16,5.83333
42.2,5.83333
42.24,5.83333
42.28,3.33333
42.32,1.66667
42.36,5.83333
42.4,6.66667
42.44,3.33333
42.48,1.66667
42.52,5.83333
42.56,7.5
42.6,7.5
42.64,5.83333
42.68,6.66667
42.72,10
42.76,3.33333
42.8,9.16667
42.84,5
42.88,4.16667
42.92,5.83333
42.96,3.33333
43,5
43.04,2.5
43.08,3.33333
43.12,10
43.16,4.16667
43.2,5.83333
43.24,1.66667
43.28,5.83333
43.32,6.66667
43.36,5
43.4,5.83333
43.44,2.5
43.48,1.66667
43.52,3.33333
43.56,9.16667
43.6,5.83333
43.64,10
43.68,9.16667
43.72,15.8333
43.76,23.3333
43.8,27.5
43.84,21.6667
43.88,27.5
43.92,29.1667
43.96,40
44,65.8333
44.04,93.3333
44.08,140
44.12,140
44.16,136.667
44.2,89.1667
44.24,78.3333
44.28,51.6667
44.32,25
44.36,9.16667
44.4,11.6667
44.44,9.16667
44.48,6.66667
44.52,7.5
44.56,6.66667
44.6,7.5
44.64,6.66667
44.68,8.33333
44.72,5.83333
44.76,4.16667
44.8,7.5
44.84,4.16667
44.88,3.33333
44.92,5.83333
44.96,9.16667
45,8.33333
45.04,5
45.08,10.8333
45.12,10.8333
45.16,10.8333
45.2,13.3333
45.24,19.1667
45.28,21.6667
45.32,15
45.36,15
45.4,10
45.44,11.6667
45.48,5.83333
45.52,7.5
45.56,6.66667
45.6,9.16667
45.64,10.8333
45.68,11.6667
45.72,12.5
45.76,15.8333
45.8,11.6667
45.84,5
45.88,5.83333
45.92,9.16667
45.96,1.66667
46,6.66667
46.04,5.83333
46.08,2.5
46.12,4.16667
46.16,6.66667
46.2,8.33333
46.24,5
46.28,4.16667
46.32,5
46.36,5.83333
46.4,7.5
46.44,5
46.48,7.5
46.52,8.33333
46.56,12.5
46.6,20
46.64,30
46.68,21.6667
46.72,17.5
46.76,15.8333
46.8,12.5
46.84,8.33333
46.88,7.5
46.92,5.83333
46.96,5
47,6.66667
47.04,4.16667
47.08,2.5
47.12,3.33333
47.16,8.33333
47.2,3.33333
47.24,5.83333
47.28,5
47.32,2.5
47.36,9.16667
47.4,7.5
47.44,9.16667
47.48,7.5
47.52,9.16667
47.56,5
47.6,5
47.64,6.66667
47.68,4.16667
47.72,6.66667
47.76,3.33333
47.8,4.16667
47.84,2.5
47.88,7.5
47.92,5.83333
47.96,6.66667
48,5
48.04,5
48.08,6.66667
48.12,4.16667
48.16,5.83333
48.2,5.83333
48.24,4.16667
48.28,9.16667
48.32,7.5
48.36,3.33333
48.4,7.5
48.44,7.5
48.48,7.5
48.52,6.66667
48.56,15
48.6,16.6667
48.64,22.5
48.68,26.6667
48.72,25.8333
48.76,10.8333
48.8,14.1667
48.84,10
48.88,10
48.92,12.5
48.96,10.8333
49,5.83333
49.04,10
49.08,4.16667
49.12,9.16667
49.16,19.1667
49.2,25
49.24,24.1667
49.28,40.8333
49.32,47.5
49.36,60.8333
49.4,71.6667
49.44,83.3333
49.48,99.1667
49.52,81.6667
49.56,68.3333
49.6,56.6667
49.64,41.6667
49.68,35.8333
49.72,15.8333
49.76,9.16667
49.8,3.33333
49.84,7.5
49.88,12.5
49.92,8.33333
49.96,7.5
50,8.33333
50.04,11.6667
50.08,11.6667
50.12,12.5
50.16,14.1667
50.2,7.5
50.24,12.5
50.28,14.1667
50.32,16.6667
50.36,21.6667
50.4,24.1667
50.44,17.5
50.48,15.8333
50.52,19.1667
50.56,13.3333
50.6,26.6667
50.64,49.1667
50.68,66.6667
50.72,88.3333
50.76,101.667
50.8,82.5
50.84,71.6667
50.88,64.1667
50.92,54.1667
50.96,40.8333
51,27.5
51.04,27.5
51.08,20
51.12,20.8333
51.16,10.8333
51.2,9.16667
51.24,9.16667
51.28,9.16667
51.32,5
51.36,6.66667
51.4,6.66667
51.44,10.8333
51.48,7.5
51.52,10
51.56,5.83333
51.6,11.6667
51.64,13.3333
51.68,21.6667
51.72,38.3333
51.76,62.5
51.8,79.1667
51.84,97.5
51.88,84.1667
51.92,83.3333
51.96,63.3333
52,48.3333
52.04,33.3333
52.08,23.3333
52.12,22.5
52.16,25.8333
52.2,27.5
52.24,20
52.28,22.5
52.32,15.8333
52.36,19.1667
52.4,11.6667
52.44,10
52.48,5.83333
52.52,8.33333
52.56,7.5
52.6,4.16667
52.64,10
52.68,5.83333
52.72,6.66667
52.76,7.5
52.8,4.16667
52.84,8.33333
52.88,5.83333
52.92,8.33333
52.96,5
53,5.83333
53.04,4.16667
53.08,5
53.12,7.5
53.16,14.1667
53.2,14.1667
53.24,17.5
53.28,19.1667
53.32,18.3333
53.36,21.6667
53.4,15
53.44,22.5
53.48,20.8333
53.52,19.1667
53.56,24.1667
53.6,19.1667
53.64,20
53.68,21.6667
53.72,27.5
53.76,35.8333
53.8,53.3333
53.84,105
53.88,159.167
53.92,170
53.96,162.5
54,140
54.04,149.167
54.08,107.5
54.12,94.1667
54.16,55
54.2,42.5
54.24,26.6667
54.28,19.1667
54.32,14.1667
54.36,13.3333
54.4,13.3333
54.44,11.6667
54.48,8.33333
54.52,10
54.56,4.16667
54.6,5.83333
54.64,6.66667
54.68,10.8333
54.72,22.5
54.76,24.1667
54.8,35
54.84,40
54.88,37.5
54.92,39.1667
54.96,30
55,23.3333
55.04,13.3333
55.08,19.1667
55.12,11.6667
55.16,10
55.2,8.33333
55.24,13.3333
55.28,8.33333
55.32,8.33333
55.36,10
55.4,12.5
55.44,10
55.48,9.16667
55.52,19.1667
55.56,32.5
55.6,67.5
55.64,88.3333
55.68,96.6667
55.72,100
55.76,74.1667
55.8,78.3333
55.84,69.1667
55.88,63.3333
55.92,50
55.96,27.5
56,23.3333
56.04,17.5
56.08,12.5
56.12,11.6667
56.16,12.5
56.2,9.16667
56.24,8.33333
56.28,7.5
56.32,10.8333
56.36,10.8333
56.4,6.66667
56.44,10
56.48,7.5
56.52,9.16667
56.56,11.6667
56.6,20.8333
56.64,15.8333
56.68,21.6667
56.72,20
56.76,15
56.8,15.8333
56.84,11.6667
56.88,13.3333
56.92,10.8333
56.96,7.5
57,5.83333
57.04,10.8333
57.08,13.3333
57.12,6.66667
57.16,8.33333
57.2,5.83333
57.24,12.5
57.28,10
57.32,10
57.36,8.33333
57.4,5
57.44,3.33333
57.48,4.16667
57.52,6.66667
57.56,5
57.6,5.83333
57.64,7.5
57.68,7.5
57.72,7.5
57.76,14.1667
57.8,17.5
57.84,15.8333
57.88,29.1667
57.92,23.3333
57.96,25
58,25.8333
58.04,21.6667
58.08,18.3333
58.12,20
58.16,19.1667
58.2,16.6667
58.24,24.1667
58.28,27.5
58.32,62.5
58.36,111.667
58.4,180
58.44,268.333
58.48,245
58.52,224.167
58.56,189.167
58.6,166.667
58.64,145
58.68,87.5
58.72,55
58.76,35
58.8,17.5
58.84,24.1667
58.88,15.8333
58.92,13.3333
58.96,10.8333
59,11.6667
59.04,7.5
59.08,13.3333
59.12,3.33333
59.16,5.83333
59.2,5.83333
59.24,12.5
59.28,12.5
59.32,10.8333
59.36,13.3333
59.4,6.66667
59.44,9.16667
59.48,6.66667
59.52,11.6667
59.56,7.5
59.6,13.3333
59.64,10
59.68,17.5
59.72,16.6667
59.76,15.8333
59.8,14.1667
59.84,11.6667
59.88,16.6667
59.92,10.8333
59.96,10
60,8.33333